ParticipantNumber,Vest,7,9,trial_name,trial_number,key_pressed,correctness,RT,question,picture,type,key1,key2,expected,QUD,pitch,startDate,startTime,experiment_id,Unnamed: 18
0,True,green or low pitch,red or high pitch,pauseScreen,1,9,correct,3568,Press the according button,images/red.png,vision,9,7,red or high pitch,,,Tue Mar 07 2023 10:50:21 GMT+0100 (Mitteleuropäische Normalzeit),1678182621900,INSERT_A_NUMBER,
0,True,green or low pitch,red or high pitch,forced_choice_sound,1,9,correct,762,Press the according button,images/red.png,vision,9,7,red or high pitch,,,Tue Mar 07 2023 10:50:21 GMT+0100 (Mitteleuropäische Normalzeit),1678182621900,INSERT_A_NUMBER,
0,True,green or low pitch,red or high pitch,forced_choice_sound,2,7,correct,709,Press the according button,images/green.png,vision,9,7,green or low pitch,,,Tue Mar 07 2023 10:50:21 GMT+0100 (Mitteleuropäische Normalzeit),1678182621900,INSERT_A_NUMBER,
0,True,green or low pitch,red or high pitch,forced_choice_sound,3,9,incorrect,11808,Press the according button,images/sound.jpg,sound,9,7,green or low pitch,,1.0,Tue Mar 07 2023 10:50:21 GMT+0100 (Mitteleuropäische Normalzeit),1678182621900,INSERT_A_NUMBER,
0,True,green or low pitch,red or high pitch,forced_choice_sound,4,7,incorrect,1658,Press the according button,images/sound.jpg,sound,9,7,red or high pitch,,0.0,Tue Mar 07 2023 10:50:21 GMT+0100 (Mitteleuropäische Normalzeit),1678182621900,INSERT_A_NUMBER,
0,True,green or low pitch,red or high pitch,forced_choice_sound,5,9,correct,1423,Press the according button,images/red.png,vision,9,7,red or high pitch,,,Tue Mar 07 2023 10:50:21 GMT+0100 (Mitteleuropäische Normalzeit),1678182621900,INSERT_A_NUMBER,
0,True,green or low pitch,red or high pitch,forced_choice_sound,6,9,correct,1048,Press the according button,images/red.png,vision,9,7,red or high pitch,,,Tue Mar 07 2023 10:50:21 GMT+0100 (Mitteleuropäische Normalzeit),1678182621900,INSERT_A_NUMBER,
0,True,green or low pitch,red or high pitch,forced_choice_sound,7,7,incorrect,1190,Press the according button,images/sound.jpg,sound,9,7,red or high pitch,,0.0,Tue Mar 07 2023 10:50:21 GMT+0100 (Mitteleuropäische Normalzeit),1678182621900,INSERT_A_NUMBER,
0,True,green or low pitch,red or high pitch,forced_choice_sound,8,7,correct,764,Press the according button,images/green.png,vision,9,7,green or low pitch,,,Tue Mar 07 2023 10:50:21 GMT+0100 (Mitteleuropäische Normalzeit),1678182621900,INSERT_A_NUMBER,
0,True,green or low pitch,red or high pitch,forced_choice_sound,9,7,correct,766,Press the according button,images/green.png,vision,9,7,green or low pitch,,,Tue Mar 07 2023 10:50:21 GMT+0100 (Mitteleuropäische Normalzeit),1678182621900,INSERT_A_NUMBER,
0,True,green or low pitch,red or high pitch,forced_choice_sound,10,9,incorrect,812,Press the according button,images/sound.jpg,sound,9,7,green or low pitch,,1.0,Tue Mar 07 2023 10:50:21 GMT+0100 (Mitteleuropäische Normalzeit),1678182621900,INSERT_A_NUMBER,
0,True,green or low pitch,red or high pitch,forced_choice_sound,11,9,incorrect,2642,Press the according button,images/sound.jpg,sound,9,7,green or low pitch,,1.0,Tue Mar 07 2023 10:50:21 GMT+0100 (Mitteleuropäische Normalzeit),1678182621900,INSERT_A_NUMBER,
0,True,green or low pitch,red or high pitch,forced_choice_sound,12,9,correct,908,Press the according button,images/sound.jpg,sound,9,7,red or high pitch,,0.0,Tue Mar 07 2023 10:50:21 GMT+0100 (Mitteleuropäische Normalzeit),1678182621900,INSERT_A_NUMBER,
0,True,green or low pitch,red or high pitch,pauseScreen,2,9,incorrect,2958,Press the according button,images/green.png,vision,9,7,green or low pitch,,,Tue Mar 07 2023 10:50:21 GMT+0100 (Mitteleuropäische Normalzeit),1678182621900,INSERT_A_NUMBER,
0,True,green or low pitch,red or high pitch,forced_choice_sound,1,9,correct,576,Press the according button,images/red.png,vision,9,7,red or high pitch,,,Tue Mar 07 2023 10:50:21 GMT+0100 (Mitteleuropäische Normalzeit),1678182621900,INSERT_A_NUMBER,
0,True,green or low pitch,red or high pitch,forced_choice_sound,2,7,incorrect,859,Press the according button,images/sound.jpg,sound,9,7,red or high pitch,,0.0,Tue Mar 07 2023 10:50:21 GMT+0100 (Mitteleuropäische Normalzeit),1678182621900,INSERT_A_NUMBER,
0,True,green or low pitch,red or high pitch,forced_choice_sound,3,9,incorrect,1234,Press the according button,images/sound.jpg,sound,9,7,green or low pitch,,1.0,Tue Mar 07 2023 10:50:21 GMT+0100 (Mitteleuropäische Normalzeit),1678182621900,INSERT_A_NUMBER,
0,True,green or low pitch,red or high pitch,forced_choice_sound,4,9,correct,998,Press the according button,images/red.png,vision,9,7,red or high pitch,,,Tue Mar 07 2023 10:50:21 GMT+0100 (Mitteleuropäische Normalzeit),1678182621900,INSERT_A_NUMBER,
0,True,green or low pitch,red or high pitch,forced_choice_sound,5,7,correct,1047,Press the according button,images/sound.jpg,sound,9,7,green or low pitch,,1.0,Tue Mar 07 2023 10:50:21 GMT+0100 (Mitteleuropäische Normalzeit),1678182621900,INSERT_A_NUMBER,
0,True,green or low pitch,red or high pitch,forced_choice_sound,6,7,correct,673,Press the according button,images/green.png,vision,9,7,green or low pitch,,,Tue Mar 07 2023 10:50:21 GMT+0100 (Mitteleuropäische Normalzeit),1678182621900,INSERT_A_NUMBER,
0,True,green or low pitch,red or high pitch,forced_choice_sound,7,9,correct,907,Press the according button,images/sound.jpg,sound,9,7,red or high pitch,,0.0,Tue Mar 07 2023 10:50:21 GMT+0100 (Mitteleuropäische Normalzeit),1678182621900,INSERT_A_NUMBER,
0,True,green or low pitch,red or high pitch,forced_choice_sound,8,7,correct,671,Press the according button,images/green.png,vision,9,7,green or low pitch,,,Tue Mar 07 2023 10:50:21 GMT+0100 (Mitteleuropäische Normalzeit),1678182621900,INSERT_A_NUMBER,
0,True,green or low pitch,red or high pitch,forced_choice_sound,9,7,correct,620,Press the according button,images/sound.jpg,sound,9,7,green or low pitch,,1.0,Tue Mar 07 2023 10:50:21 GMT+0100 (Mitteleuropäische Normalzeit),1678182621900,INSERT_A_NUMBER,
0,True,green or low pitch,red or high pitch,forced_choice_sound,10,7,correct,675,Press the according button,images/sound.jpg,sound,9,7,green or low pitch,,1.0,Tue Mar 07 2023 10:50:21 GMT+0100 (Mitteleuropäische Normalzeit),1678182621900,INSERT_A_NUMBER,
0,True,green or low pitch,red or high pitch,forced_choice_sound,11,7,correct,762,Press the according button,images/green.png,vision,9,7,green or low pitch,,,Tue Mar 07 2023 10:50:21 GMT+0100 (Mitteleuropäische Normalzeit),1678182621900,INSERT_A_NUMBER,
0,True,green or low pitch,red or high pitch,forced_choice_sound,12,9,correct,1000,Press the according button,images/red.png,vision,9,7,red or high pitch,,,Tue Mar 07 2023 10:50:21 GMT+0100 (Mitteleuropäische Normalzeit),1678182621900,INSERT_A_NUMBER,
0,True,green or low pitch,red or high pitch,forced_choice_sound,13,9,correct,906,Press the according button,images/sound.jpg,sound,9,7,red or high pitch,,0.0,Tue Mar 07 2023 10:50:21 GMT+0100 (Mitteleuropäische Normalzeit),1678182621900,INSERT_A_NUMBER,
0,True,green or low pitch,red or high pitch,forced_choice_sound,14,7,correct,624,Press the according button,images/green.png,vision,9,7,green or low pitch,,,Tue Mar 07 2023 10:50:21 GMT+0100 (Mitteleuropäische Normalzeit),1678182621900,INSERT_A_NUMBER,
0,True,green or low pitch,red or high pitch,forced_choice_sound,15,9,correct,999,Press the according button,images/sound.jpg,sound,9,7,red or high pitch,,0.0,Tue Mar 07 2023 10:50:21 GMT+0100 (Mitteleuropäische Normalzeit),1678182621900,INSERT_A_NUMBER,
0,True,green or low pitch,red or high pitch,forced_choice_sound,16,9,incorrect,668,Press the according button,images/sound.jpg,sound,9,7,green or low pitch,,1.0,Tue Mar 07 2023 10:50:21 GMT+0100 (Mitteleuropäische Normalzeit),1678182621900,INSERT_A_NUMBER,
0,True,green or low pitch,red or high pitch,forced_choice_sound,17,9,correct,1329,Press the according button,images/red.png,vision,9,7,red or high pitch,,,Tue Mar 07 2023 10:50:21 GMT+0100 (Mitteleuropäische Normalzeit),1678182621900,INSERT_A_NUMBER,
0,True,green or low pitch,red or high pitch,forced_choice_sound,18,9,incorrect,4152,Press the according button,images/green.png,vision,9,7,green or low pitch,,,Tue Mar 07 2023 10:50:21 GMT+0100 (Mitteleuropäische Normalzeit),1678182621900,INSERT_A_NUMBER,
0,True,green or low pitch,red or high pitch,forced_choice_sound,19,9,correct,998,Press the according button,images/sound.jpg,sound,9,7,red or high pitch,,0.0,Tue Mar 07 2023 10:50:21 GMT+0100 (Mitteleuropäische Normalzeit),1678182621900,INSERT_A_NUMBER,
0,True,green or low pitch,red or high pitch,forced_choice_sound,20,9,correct,762,Press the according button,images/red.png,vision,9,7,red or high pitch,,,Tue Mar 07 2023 10:50:21 GMT+0100 (Mitteleuropäische Normalzeit),1678182621900,INSERT_A_NUMBER,
0,False,green or low pitch,red or high pitch,pauseScreen,1,9,correct,2220,Press the according button,images/red.png,vision,9,7,red or high pitch,,,Tue Mar 07 2023 11:07:49 GMT+0100 (Mitteleuropäische Normalzeit),1678183669038,INSERT_A_NUMBER,
0,False,green or low pitch,red or high pitch,forced_choice_sound,1,9,correct,573,Press the according button,images/red.png,vision,9,7,red or high pitch,,,Tue Mar 07 2023 11:07:49 GMT+0100 (Mitteleuropäische Normalzeit),1678183669038,INSERT_A_NUMBER,
0,False,green or low pitch,red or high pitch,forced_choice_sound,2,9,incorrect,2123,Press the according button,images/green.png,vision,9,7,green or low pitch,,,Tue Mar 07 2023 11:07:49 GMT+0100 (Mitteleuropäische Normalzeit),1678183669038,INSERT_A_NUMBER,
0,False,green or low pitch,red or high pitch,forced_choice_sound,3,7,correct,1140,Press the according button,images/sound.jpg,sound,9,7,green or low pitch,,1.0,Tue Mar 07 2023 11:07:49 GMT+0100 (Mitteleuropäische Normalzeit),1678183669038,INSERT_A_NUMBER,
0,False,green or low pitch,red or high pitch,forced_choice_sound,4,7,correct,762,Press the according button,images/sound.jpg,sound,9,7,green or low pitch,,1.0,Tue Mar 07 2023 11:07:49 GMT+0100 (Mitteleuropäische Normalzeit),1678183669038,INSERT_A_NUMBER,
0,False,green or low pitch,red or high pitch,forced_choice_sound,5,9,correct,623,Press the according button,images/red.png,vision,9,7,red or high pitch,,,Tue Mar 07 2023 11:07:49 GMT+0100 (Mitteleuropäische Normalzeit),1678183669038,INSERT_A_NUMBER,
0,False,green or low pitch,red or high pitch,forced_choice_sound,6,7,correct,623,Press the according button,images/green.png,vision,9,7,green or low pitch,,,Tue Mar 07 2023 11:07:49 GMT+0100 (Mitteleuropäische Normalzeit),1678183669038,INSERT_A_NUMBER,
0,False,green or low pitch,red or high pitch,forced_choice_sound,7,9,correct,909,Press the according button,images/sound.jpg,sound,9,7,red or high pitch,,0.0,Tue Mar 07 2023 11:07:49 GMT+0100 (Mitteleuropäische Normalzeit),1678183669038,INSERT_A_NUMBER,
0,False,green or low pitch,red or high pitch,forced_choice_sound,8,9,correct,807,Press the according button,images/red.png,vision,9,7,red or high pitch,,,Tue Mar 07 2023 11:07:49 GMT+0100 (Mitteleuropäische Normalzeit),1678183669038,INSERT_A_NUMBER,
0,False,green or low pitch,red or high pitch,forced_choice_sound,9,9,correct,953,Press the according button,images/sound.jpg,sound,9,7,red or high pitch,,0.0,Tue Mar 07 2023 11:07:49 GMT+0100 (Mitteleuropäische Normalzeit),1678183669038,INSERT_A_NUMBER,
0,False,green or low pitch,red or high pitch,forced_choice_sound,10,7,correct,999,Press the according button,images/sound.jpg,sound,9,7,green or low pitch,,1.0,Tue Mar 07 2023 11:07:49 GMT+0100 (Mitteleuropäische Normalzeit),1678183669038,INSERT_A_NUMBER,
0,False,green or low pitch,red or high pitch,forced_choice_sound,11,7,correct,904,Press the according button,images/sound.jpg,sound,9,7,green or low pitch,,1.0,Tue Mar 07 2023 11:07:49 GMT+0100 (Mitteleuropäische Normalzeit),1678183669038,INSERT_A_NUMBER,
0,False,green or low pitch,red or high pitch,forced_choice_sound,12,7,correct,578,Press the according button,images/green.png,vision,9,7,green or low pitch,,,Tue Mar 07 2023 11:07:49 GMT+0100 (Mitteleuropäische Normalzeit),1678183669038,INSERT_A_NUMBER,
0,False,green or low pitch,red or high pitch,forced_choice_sound,13,9,correct,855,Press the according button,images/sound.jpg,sound,9,7,red or high pitch,,0.0,Tue Mar 07 2023 11:07:49 GMT+0100 (Mitteleuropäische Normalzeit),1678183669038,INSERT_A_NUMBER,
0,False,green or low pitch,red or high pitch,forced_choice_sound,14,7,correct,629,Press the according button,images/green.png,vision,9,7,green or low pitch,,,Tue Mar 07 2023 11:07:49 GMT+0100 (Mitteleuropäische Normalzeit),1678183669038,INSERT_A_NUMBER,
0,False,green or low pitch,red or high pitch,forced_choice_sound,15,9,correct,761,Press the according button,images/red.png,vision,9,7,red or high pitch,,,Tue Mar 07 2023 11:07:49 GMT+0100 (Mitteleuropäische Normalzeit),1678183669038,INSERT_A_NUMBER,
0,False,green or low pitch,red or high pitch,forced_choice_sound,16,7,incorrect,763,Press the according button,images/sound.jpg,sound,9,7,red or high pitch,,0.0,Tue Mar 07 2023 11:07:49 GMT+0100 (Mitteleuropäische Normalzeit),1678183669038,INSERT_A_NUMBER,
0,False,green or low pitch,red or high pitch,forced_choice_sound,17,7,incorrect,1090,Press the according button,images/sound.jpg,sound,9,7,red or high pitch,,0.0,Tue Mar 07 2023 11:07:49 GMT+0100 (Mitteleuropäische Normalzeit),1678183669038,INSERT_A_NUMBER,
0,False,green or low pitch,red or high pitch,forced_choice_sound,18,9,correct,4108,Press the according button,images/red.png,vision,9,7,red or high pitch,,,Tue Mar 07 2023 11:07:49 GMT+0100 (Mitteleuropäische Normalzeit),1678183669038,INSERT_A_NUMBER,
0,False,green or low pitch,red or high pitch,forced_choice_sound,19,9,incorrect,807,Press the according button,images/sound.jpg,sound,9,7,green or low pitch,,1.0,Tue Mar 07 2023 11:07:49 GMT+0100 (Mitteleuropäische Normalzeit),1678183669038,INSERT_A_NUMBER,
0,False,green or low pitch,red or high pitch,forced_choice_sound,20,7,correct,1378,Press the according button,images/green.png,vision,9,7,green or low pitch,,,Tue Mar 07 2023 11:07:49 GMT+0100 (Mitteleuropäische Normalzeit),1678183669038,INSERT_A_NUMBER,
1,True,green or low pitch,red or high pitch,pauseScreen,1,9,correct,966,Press the according button,images/red.png,vision,9,7,red or high pitch,,,Tue Mar 07 2023 12:15:08 GMT+0100 (Mitteleuropäische Normalzeit),1678187708239,INSERT_A_NUMBER,
1,True,green or low pitch,red or high pitch,forced_choice_sound,1,9,correct,621,Press the according button,images/red.png,vision,9,7,red or high pitch,,,Tue Mar 07 2023 12:15:08 GMT+0100 (Mitteleuropäische Normalzeit),1678187708239,INSERT_A_NUMBER,
1,True,green or low pitch,red or high pitch,forced_choice_sound,2,9,incorrect,1239,Press the according button,images/sound.jpg,sound,9,7,green or low pitch,,1.0,Tue Mar 07 2023 12:15:08 GMT+0100 (Mitteleuropäische Normalzeit),1678187708239,INSERT_A_NUMBER,
1,True,green or low pitch,red or high pitch,forced_choice_sound,3,7,correct,1187,Press the according button,images/green.png,vision,9,7,green or low pitch,,,Tue Mar 07 2023 12:15:08 GMT+0100 (Mitteleuropäische Normalzeit),1678187708239,INSERT_A_NUMBER,
1,True,green or low pitch,red or high pitch,forced_choice_sound,4,7,correct,811,Press the according button,images/green.png,vision,9,7,green or low pitch,,,Tue Mar 07 2023 12:15:08 GMT+0100 (Mitteleuropäische Normalzeit),1678187708239,INSERT_A_NUMBER,
1,True,green or low pitch,red or high pitch,forced_choice_sound,5,9,correct,999,Press the according button,images/sound.jpg,sound,9,7,red or high pitch,,0.0,Tue Mar 07 2023 12:15:08 GMT+0100 (Mitteleuropäische Normalzeit),1678187708239,INSERT_A_NUMBER,
1,True,green or low pitch,red or high pitch,forced_choice_sound,6,9,correct,1376,Press the according button,images/sound.jpg,sound,9,7,red or high pitch,,0.0,Tue Mar 07 2023 12:15:08 GMT+0100 (Mitteleuropäische Normalzeit),1678187708239,INSERT_A_NUMBER,
1,True,green or low pitch,red or high pitch,forced_choice_sound,7,9,correct,858,Press the according button,images/red.png,vision,9,7,red or high pitch,,,Tue Mar 07 2023 12:15:08 GMT+0100 (Mitteleuropäische Normalzeit),1678187708239,INSERT_A_NUMBER,
1,True,green or low pitch,red or high pitch,forced_choice_sound,8,7,correct,1143,Press the according button,images/sound.jpg,sound,9,7,green or low pitch,,1.0,Tue Mar 07 2023 12:15:08 GMT+0100 (Mitteleuropäische Normalzeit),1678187708239,INSERT_A_NUMBER,
1,True,green or low pitch,red or high pitch,forced_choice_sound,9,9,correct,1187,Press the according button,images/sound.jpg,sound,9,7,red or high pitch,,0.0,Tue Mar 07 2023 12:15:08 GMT+0100 (Mitteleuropäische Normalzeit),1678187708239,INSERT_A_NUMBER,
1,True,green or low pitch,red or high pitch,forced_choice_sound,10,9,correct,958,Press the according button,images/sound.jpg,sound,9,7,red or high pitch,,0.0,Tue Mar 07 2023 12:15:08 GMT+0100 (Mitteleuropäische Normalzeit),1678187708239,INSERT_A_NUMBER,
1,True,green or low pitch,red or high pitch,forced_choice_sound,11,9,correct,808,Press the according button,images/sound.jpg,sound,9,7,red or high pitch,,0.0,Tue Mar 07 2023 12:15:08 GMT+0100 (Mitteleuropäische Normalzeit),1678187708239,INSERT_A_NUMBER,
1,True,green or low pitch,red or high pitch,forced_choice_sound,12,9,correct,855,Press the according button,images/red.png,vision,9,7,red or high pitch,,,Tue Mar 07 2023 12:15:08 GMT+0100 (Mitteleuropäische Normalzeit),1678187708239,INSERT_A_NUMBER,
1,True,green or low pitch,red or high pitch,forced_choice_sound,13,7,correct,718,Press the according button,images/green.png,vision,9,7,green or low pitch,,,Tue Mar 07 2023 12:15:08 GMT+0100 (Mitteleuropäische Normalzeit),1678187708239,INSERT_A_NUMBER,
1,True,green or low pitch,red or high pitch,forced_choice_sound,14,7,correct,579,Press the according button,images/green.png,vision,9,7,green or low pitch,,,Tue Mar 07 2023 12:15:08 GMT+0100 (Mitteleuropäische Normalzeit),1678187708239,INSERT_A_NUMBER,
1,True,green or low pitch,red or high pitch,forced_choice_sound,15,7,correct,1423,Press the according button,images/sound.jpg,sound,9,7,green or low pitch,,1.0,Tue Mar 07 2023 12:15:08 GMT+0100 (Mitteleuropäische Normalzeit),1678187708239,INSERT_A_NUMBER,
1,True,green or low pitch,red or high pitch,forced_choice_sound,16,7,correct,903,Press the according button,images/sound.jpg,sound,9,7,green or low pitch,,1.0,Tue Mar 07 2023 12:15:08 GMT+0100 (Mitteleuropäische Normalzeit),1678187708239,INSERT_A_NUMBER,
1,True,green or low pitch,red or high pitch,forced_choice_sound,17,7,correct,764,Press the according button,images/green.png,vision,9,7,green or low pitch,,,Tue Mar 07 2023 12:15:08 GMT+0100 (Mitteleuropäische Normalzeit),1678187708239,INSERT_A_NUMBER,
1,True,green or low pitch,red or high pitch,forced_choice_sound,18,7,correct,908,Press the according button,images/sound.jpg,sound,9,7,green or low pitch,,1.0,Tue Mar 07 2023 12:15:08 GMT+0100 (Mitteleuropäische Normalzeit),1678187708239,INSERT_A_NUMBER,
1,True,green or low pitch,red or high pitch,forced_choice_sound,19,9,correct,716,Press the according button,images/red.png,vision,9,7,red or high pitch,,,Tue Mar 07 2023 12:15:08 GMT+0100 (Mitteleuropäische Normalzeit),1678187708239,INSERT_A_NUMBER,
1,True,green or low pitch,red or high pitch,forced_choice_sound,20,9,correct,669,Press the according button,images/red.png,vision,9,7,red or high pitch,,,Tue Mar 07 2023 12:15:08 GMT+0100 (Mitteleuropäische Normalzeit),1678187708239,INSERT_A_NUMBER,
1,False,green or low pitch,red or high pitch,pauseScreen,1,9,correct,1687,Press the according button,images/red.png,vision,9,7,red or high pitch,,,Tue Mar 07 2023 12:09:25 GMT+0100 (Mitteleuropäische Normalzeit),1678187365599,INSERT_A_NUMBER,
1,False,green or low pitch,red or high pitch,forced_choice_sound,1,9,correct,4150,Press the according button,images/red.png,vision,9,7,red or high pitch,,,Tue Mar 07 2023 12:09:25 GMT+0100 (Mitteleuropäische Normalzeit),1678187365599,INSERT_A_NUMBER,
1,False,green or low pitch,red or high pitch,forced_choice_sound,2,9,correct,999,Press the according button,images/red.png,vision,9,7,red or high pitch,,,Tue Mar 07 2023 12:09:25 GMT+0100 (Mitteleuropäische Normalzeit),1678187365599,INSERT_A_NUMBER,
1,False,green or low pitch,red or high pitch,forced_choice_sound,3,7,correct,8155,Press the according button,images/sound.jpg,sound,9,7,green or low pitch,,1.0,Tue Mar 07 2023 12:09:25 GMT+0100 (Mitteleuropäische Normalzeit),1678187365599,INSERT_A_NUMBER,
1,False,green or low pitch,red or high pitch,forced_choice_sound,4,9,correct,2971,Press the according button,images/sound.jpg,sound,9,7,red or high pitch,,0.0,Tue Mar 07 2023 12:09:25 GMT+0100 (Mitteleuropäische Normalzeit),1678187365599,INSERT_A_NUMBER,
1,False,green or low pitch,red or high pitch,forced_choice_sound,5,7,correct,1047,Press the according button,images/green.png,vision,9,7,green or low pitch,,,Tue Mar 07 2023 12:09:25 GMT+0100 (Mitteleuropäische Normalzeit),1678187365599,INSERT_A_NUMBER,
1,False,green or low pitch,red or high pitch,forced_choice_sound,6,9,correct,1235,Press the according button,images/sound.jpg,sound,9,7,red or high pitch,,0.0,Tue Mar 07 2023 12:09:25 GMT+0100 (Mitteleuropäische Normalzeit),1678187365599,INSERT_A_NUMBER,
1,False,green or low pitch,red or high pitch,forced_choice_sound,7,9,correct,859,Press the according button,images/red.png,vision,9,7,red or high pitch,,,Tue Mar 07 2023 12:09:25 GMT+0100 (Mitteleuropäische Normalzeit),1678187365599,INSERT_A_NUMBER,
1,False,green or low pitch,red or high pitch,forced_choice_sound,8,7,correct,720,Press the according button,images/green.png,vision,9,7,green or low pitch,,,Tue Mar 07 2023 12:09:25 GMT+0100 (Mitteleuropäische Normalzeit),1678187365599,INSERT_A_NUMBER,
1,False,green or low pitch,red or high pitch,forced_choice_sound,9,7,correct,714,Press the according button,images/green.png,vision,9,7,green or low pitch,,,Tue Mar 07 2023 12:09:25 GMT+0100 (Mitteleuropäische Normalzeit),1678187365599,INSERT_A_NUMBER,
1,False,green or low pitch,red or high pitch,forced_choice_sound,10,7,correct,1095,Press the according button,images/sound.jpg,sound,9,7,green or low pitch,,1.0,Tue Mar 07 2023 12:09:25 GMT+0100 (Mitteleuropäische Normalzeit),1678187365599,INSERT_A_NUMBER,
1,False,green or low pitch,red or high pitch,forced_choice_sound,11,7,correct,999,Press the according button,images/sound.jpg,sound,9,7,green or low pitch,,1.0,Tue Mar 07 2023 12:09:25 GMT+0100 (Mitteleuropäische Normalzeit),1678187365599,INSERT_A_NUMBER,
1,False,green or low pitch,red or high pitch,forced_choice_sound,12,9,correct,907,Press the according button,images/sound.jpg,sound,9,7,red or high pitch,,0.0,Tue Mar 07 2023 12:09:25 GMT+0100 (Mitteleuropäische Normalzeit),1678187365599,INSERT_A_NUMBER,
1,False,green or low pitch,red or high pitch,pauseScreen,2,9,incorrect,3403,Press the according button,images/green.png,vision,9,7,green or low pitch,,,Tue Mar 07 2023 12:09:25 GMT+0100 (Mitteleuropäische Normalzeit),1678187365599,INSERT_A_NUMBER,
1,False,green or low pitch,red or high pitch,forced_choice_sound,1,9,correct,627,Press the according button,images/red.png,vision,9,7,red or high pitch,,,Tue Mar 07 2023 12:09:25 GMT+0100 (Mitteleuropäische Normalzeit),1678187365599,INSERT_A_NUMBER,
1,False,green or low pitch,red or high pitch,forced_choice_sound,2,9,correct,719,Press the according button,images/red.png,vision,9,7,red or high pitch,,,Tue Mar 07 2023 12:09:25 GMT+0100 (Mitteleuropäische Normalzeit),1678187365599,INSERT_A_NUMBER,
1,False,green or low pitch,red or high pitch,forced_choice_sound,3,7,correct,622,Press the according button,images/green.png,vision,9,7,green or low pitch,,,Tue Mar 07 2023 12:09:25 GMT+0100 (Mitteleuropäische Normalzeit),1678187365599,INSERT_A_NUMBER,
1,False,green or low pitch,red or high pitch,forced_choice_sound,4,7,correct,1562,Press the according button,images/sound.jpg,sound,9,7,green or low pitch,,1.0,Tue Mar 07 2023 12:09:25 GMT+0100 (Mitteleuropäische Normalzeit),1678187365599,INSERT_A_NUMBER,
1,False,green or low pitch,red or high pitch,forced_choice_sound,5,9,correct,1143,Press the according button,images/sound.jpg,sound,9,7,red or high pitch,,0.0,Tue Mar 07 2023 12:09:25 GMT+0100 (Mitteleuropäische Normalzeit),1678187365599,INSERT_A_NUMBER,
1,False,green or low pitch,red or high pitch,forced_choice_sound,6,7,correct,671,Press the according button,images/green.png,vision,9,7,green or low pitch,,,Tue Mar 07 2023 12:09:25 GMT+0100 (Mitteleuropäische Normalzeit),1678187365599,INSERT_A_NUMBER,
1,False,green or low pitch,red or high pitch,forced_choice_sound,7,7,incorrect,951,Press the according button,images/sound.jpg,sound,9,7,red or high pitch,,0.0,Tue Mar 07 2023 12:09:25 GMT+0100 (Mitteleuropäische Normalzeit),1678187365599,INSERT_A_NUMBER,
1,False,green or low pitch,red or high pitch,forced_choice_sound,8,7,correct,1379,Press the according button,images/sound.jpg,sound,9,7,green or low pitch,,1.0,Tue Mar 07 2023 12:09:25 GMT+0100 (Mitteleuropäische Normalzeit),1678187365599,INSERT_A_NUMBER,
1,False,green or low pitch,red or high pitch,forced_choice_sound,9,7,correct,764,Press the according button,images/green.png,vision,9,7,green or low pitch,,,Tue Mar 07 2023 12:09:25 GMT+0100 (Mitteleuropäische Normalzeit),1678187365599,INSERT_A_NUMBER,
1,False,green or low pitch,red or high pitch,forced_choice_sound,10,7,correct,1002,Press the according button,images/green.png,vision,9,7,green or low pitch,,,Tue Mar 07 2023 12:09:25 GMT+0100 (Mitteleuropäische Normalzeit),1678187365599,INSERT_A_NUMBER,
1,False,green or low pitch,red or high pitch,forced_choice_sound,11,7,correct,2176,Press the according button,images/sound.jpg,sound,9,7,green or low pitch,,1.0,Tue Mar 07 2023 12:09:25 GMT+0100 (Mitteleuropäische Normalzeit),1678187365599,INSERT_A_NUMBER,
1,False,green or low pitch,red or high pitch,forced_choice_sound,12,9,correct,954,Press the according button,images/red.png,vision,9,7,red or high pitch,,,Tue Mar 07 2023 12:09:25 GMT+0100 (Mitteleuropäische Normalzeit),1678187365599,INSERT_A_NUMBER,
1,False,green or low pitch,red or high pitch,forced_choice_sound,13,9,correct,860,Press the according button,images/red.png,vision,9,7,red or high pitch,,,Tue Mar 07 2023 12:09:25 GMT+0100 (Mitteleuropäische Normalzeit),1678187365599,INSERT_A_NUMBER,
1,False,green or low pitch,red or high pitch,forced_choice_sound,14,9,correct,950,Press the according button,images/sound.jpg,sound,9,7,red or high pitch,,0.0,Tue Mar 07 2023 12:09:25 GMT+0100 (Mitteleuropäische Normalzeit),1678187365599,INSERT_A_NUMBER,
1,False,green or low pitch,red or high pitch,forced_choice_sound,15,7,correct,904,Press the according button,images/sound.jpg,sound,9,7,green or low pitch,,1.0,Tue Mar 07 2023 12:09:25 GMT+0100 (Mitteleuropäische Normalzeit),1678187365599,INSERT_A_NUMBER,
1,False,green or low pitch,red or high pitch,forced_choice_sound,16,9,correct,1140,Press the according button,images/red.png,vision,9,7,red or high pitch,,,Tue Mar 07 2023 12:09:25 GMT+0100 (Mitteleuropäische Normalzeit),1678187365599,INSERT_A_NUMBER,
1,False,green or low pitch,red or high pitch,forced_choice_sound,17,9,correct,1235,Press the according button,images/sound.jpg,sound,9,7,red or high pitch,,0.0,Tue Mar 07 2023 12:09:25 GMT+0100 (Mitteleuropäische Normalzeit),1678187365599,INSERT_A_NUMBER,
1,False,green or low pitch,red or high pitch,forced_choice_sound,18,9,correct,815,Press the according button,images/sound.jpg,sound,9,7,red or high pitch,,0.0,Tue Mar 07 2023 12:09:25 GMT+0100 (Mitteleuropäische Normalzeit),1678187365599,INSERT_A_NUMBER,
1,False,green or low pitch,red or high pitch,forced_choice_sound,19,7,correct,810,Press the according button,images/green.png,vision,9,7,green or low pitch,,,Tue Mar 07 2023 12:09:25 GMT+0100 (Mitteleuropäische Normalzeit),1678187365599,INSERT_A_NUMBER,
1,False,green or low pitch,red or high pitch,forced_choice_sound,20,7,correct,907,Press the according button,images/sound.jpg,sound,9,7,green or low pitch,,1.0,Tue Mar 07 2023 12:09:25 GMT+0100 (Mitteleuropäische Normalzeit),1678187365599,INSERT_A_NUMBER,
2,True,green or low pitch,red or high pitch,pauseScreen,1,7,incorrect,7410,Press the according button,images/red.png,vision,9,7,red or high pitch,,,Tue Mar 07 2023 12:27:45 GMT+0100 (Mitteleuropäische Normalzeit),1678188465937,INSERT_A_NUMBER,
2,True,green or low pitch,red or high pitch,forced_choice_sound,1,9,correct,1799,Press the according button,images/red.png,vision,9,7,red or high pitch,,,Tue Mar 07 2023 12:27:45 GMT+0100 (Mitteleuropäische Normalzeit),1678188465937,INSERT_A_NUMBER,
2,True,green or low pitch,red or high pitch,forced_choice_sound,2,9,correct,859,Press the according button,images/red.png,vision,9,7,red or high pitch,,,Tue Mar 07 2023 12:27:45 GMT+0100 (Mitteleuropäische Normalzeit),1678188465937,INSERT_A_NUMBER,
2,True,green or low pitch,red or high pitch,forced_choice_sound,3,7,incorrect,4670,Press the according button,images/sound.jpg,sound,9,7,red or high pitch,,0.0,Tue Mar 07 2023 12:27:45 GMT+0100 (Mitteleuropäische Normalzeit),1678188465937,INSERT_A_NUMBER,
2,True,green or low pitch,red or high pitch,forced_choice_sound,4,9,incorrect,1557,Press the according button,images/sound.jpg,sound,9,7,green or low pitch,,1.0,Tue Mar 07 2023 12:27:45 GMT+0100 (Mitteleuropäische Normalzeit),1678188465937,INSERT_A_NUMBER,
2,True,green or low pitch,red or high pitch,forced_choice_sound,5,9,correct,954,Press the according button,images/red.png,vision,9,7,red or high pitch,,,Tue Mar 07 2023 12:27:45 GMT+0100 (Mitteleuropäische Normalzeit),1678188465937,INSERT_A_NUMBER,
2,True,green or low pitch,red or high pitch,forced_choice_sound,6,7,correct,667,Press the according button,images/green.png,vision,9,7,green or low pitch,,,Tue Mar 07 2023 12:27:45 GMT+0100 (Mitteleuropäische Normalzeit),1678188465937,INSERT_A_NUMBER,
2,True,green or low pitch,red or high pitch,forced_choice_sound,7,7,correct,579,Press the according button,images/green.png,vision,9,7,green or low pitch,,,Tue Mar 07 2023 12:27:45 GMT+0100 (Mitteleuropäische Normalzeit),1678188465937,INSERT_A_NUMBER,
2,True,green or low pitch,red or high pitch,forced_choice_sound,8,7,correct,576,Press the according button,images/green.png,vision,9,7,green or low pitch,,,Tue Mar 07 2023 12:27:45 GMT+0100 (Mitteleuropäische Normalzeit),1678188465937,INSERT_A_NUMBER,
2,True,green or low pitch,red or high pitch,forced_choice_sound,9,7,correct,1094,Press the according button,images/sound.jpg,sound,9,7,green or low pitch,,1.0,Tue Mar 07 2023 12:27:45 GMT+0100 (Mitteleuropäische Normalzeit),1678188465937,INSERT_A_NUMBER,
2,True,green or low pitch,red or high pitch,forced_choice_sound,10,9,correct,902,Press the according button,images/sound.jpg,sound,9,7,red or high pitch,,0.0,Tue Mar 07 2023 12:27:45 GMT+0100 (Mitteleuropäische Normalzeit),1678188465937,INSERT_A_NUMBER,
2,True,green or low pitch,red or high pitch,forced_choice_sound,11,7,correct,952,Press the according button,images/sound.jpg,sound,9,7,green or low pitch,,1.0,Tue Mar 07 2023 12:27:45 GMT+0100 (Mitteleuropäische Normalzeit),1678188465937,INSERT_A_NUMBER,
2,True,green or low pitch,red or high pitch,forced_choice_sound,12,9,correct,810,Press the according button,images/sound.jpg,sound,9,7,red or high pitch,,0.0,Tue Mar 07 2023 12:27:45 GMT+0100 (Mitteleuropäische Normalzeit),1678188465937,INSERT_A_NUMBER,
2,True,green or low pitch,red or high pitch,pauseScreen,2,7,correct,2759,Press the according button,images/green.png,vision,9,7,green or low pitch,,,Tue Mar 07 2023 12:27:45 GMT+0100 (Mitteleuropäische Normalzeit),1678188465937,INSERT_A_NUMBER,
2,True,green or low pitch,red or high pitch,forced_choice_sound,1,9,correct,858,Press the according button,images/red.png,vision,9,7,red or high pitch,,,Tue Mar 07 2023 12:27:45 GMT+0100 (Mitteleuropäische Normalzeit),1678188465937,INSERT_A_NUMBER,
2,True,green or low pitch,red or high pitch,forced_choice_sound,2,7,correct,999,Press the according button,images/sound.jpg,sound,9,7,green or low pitch,,1.0,Tue Mar 07 2023 12:27:45 GMT+0100 (Mitteleuropäische Normalzeit),1678188465937,INSERT_A_NUMBER,
2,True,green or low pitch,red or high pitch,forced_choice_sound,3,9,correct,855,Press the according button,images/sound.jpg,sound,9,7,red or high pitch,,0.0,Tue Mar 07 2023 12:27:45 GMT+0100 (Mitteleuropäische Normalzeit),1678188465937,INSERT_A_NUMBER,
2,True,green or low pitch,red or high pitch,forced_choice_sound,4,7,correct,908,Press the according button,images/sound.jpg,sound,9,7,green or low pitch,,1.0,Tue Mar 07 2023 12:27:45 GMT+0100 (Mitteleuropäische Normalzeit),1678188465937,INSERT_A_NUMBER,
2,True,green or low pitch,red or high pitch,forced_choice_sound,5,7,correct,714,Press the according button,images/green.png,vision,9,7,green or low pitch,,,Tue Mar 07 2023 12:27:45 GMT+0100 (Mitteleuropäische Normalzeit),1678188465937,INSERT_A_NUMBER,
2,True,green or low pitch,red or high pitch,forced_choice_sound,6,7,correct,575,Press the according button,images/green.png,vision,9,7,green or low pitch,,,Tue Mar 07 2023 12:27:45 GMT+0100 (Mitteleuropäische Normalzeit),1678188465937,INSERT_A_NUMBER,
2,True,green or low pitch,red or high pitch,forced_choice_sound,7,7,incorrect,762,Press the according button,images/sound.jpg,sound,9,7,red or high pitch,,0.0,Tue Mar 07 2023 12:27:45 GMT+0100 (Mitteleuropäische Normalzeit),1678188465937,INSERT_A_NUMBER,
2,True,green or low pitch,red or high pitch,forced_choice_sound,8,7,correct,1327,Press the according button,images/green.png,vision,9,7,green or low pitch,,,Tue Mar 07 2023 12:27:45 GMT+0100 (Mitteleuropäische Normalzeit),1678188465937,INSERT_A_NUMBER,
2,True,green or low pitch,red or high pitch,forced_choice_sound,9,7,correct,1139,Press the according button,images/sound.jpg,sound,9,7,green or low pitch,,1.0,Tue Mar 07 2023 12:27:45 GMT+0100 (Mitteleuropäische Normalzeit),1678188465937,INSERT_A_NUMBER,
2,True,green or low pitch,red or high pitch,forced_choice_sound,10,9,correct,763,Press the according button,images/sound.jpg,sound,9,7,red or high pitch,,0.0,Tue Mar 07 2023 12:27:45 GMT+0100 (Mitteleuropäische Normalzeit),1678188465937,INSERT_A_NUMBER,
2,True,green or low pitch,red or high pitch,forced_choice_sound,11,9,correct,672,Press the according button,images/red.png,vision,9,7,red or high pitch,,,Tue Mar 07 2023 12:27:45 GMT+0100 (Mitteleuropäische Normalzeit),1678188465937,INSERT_A_NUMBER,
2,True,green or low pitch,red or high pitch,forced_choice_sound,12,9,correct,626,Press the according button,images/red.png,vision,9,7,red or high pitch,,,Tue Mar 07 2023 12:27:45 GMT+0100 (Mitteleuropäische Normalzeit),1678188465937,INSERT_A_NUMBER,
2,True,green or low pitch,red or high pitch,forced_choice_sound,13,9,correct,618,Press the according button,images/red.png,vision,9,7,red or high pitch,,,Tue Mar 07 2023 12:27:45 GMT+0100 (Mitteleuropäische Normalzeit),1678188465937,INSERT_A_NUMBER,
2,True,green or low pitch,red or high pitch,forced_choice_sound,14,7,correct,671,Press the according button,images/green.png,vision,9,7,green or low pitch,,,Tue Mar 07 2023 12:27:45 GMT+0100 (Mitteleuropäische Normalzeit),1678188465937,INSERT_A_NUMBER,
2,True,green or low pitch,red or high pitch,forced_choice_sound,15,9,correct,574,Press the according button,images/red.png,vision,9,7,red or high pitch,,,Tue Mar 07 2023 12:27:45 GMT+0100 (Mitteleuropäische Normalzeit),1678188465937,INSERT_A_NUMBER,
2,True,green or low pitch,red or high pitch,forced_choice_sound,16,7,correct,999,Press the according button,images/sound.jpg,sound,9,7,green or low pitch,,1.0,Tue Mar 07 2023 12:27:45 GMT+0100 (Mitteleuropäische Normalzeit),1678188465937,INSERT_A_NUMBER,
2,True,green or low pitch,red or high pitch,forced_choice_sound,17,9,correct,811,Press the according button,images/sound.jpg,sound,9,7,red or high pitch,,0.0,Tue Mar 07 2023 12:27:45 GMT+0100 (Mitteleuropäische Normalzeit),1678188465937,INSERT_A_NUMBER,
2,True,green or low pitch,red or high pitch,forced_choice_sound,18,7,correct,862,Press the according button,images/green.png,vision,9,7,green or low pitch,,,Tue Mar 07 2023 12:27:45 GMT+0100 (Mitteleuropäische Normalzeit),1678188465937,INSERT_A_NUMBER,
2,True,green or low pitch,red or high pitch,forced_choice_sound,19,7,correct,1045,Press the according button,images/sound.jpg,sound,9,7,green or low pitch,,1.0,Tue Mar 07 2023 12:27:45 GMT+0100 (Mitteleuropäische Normalzeit),1678188465937,INSERT_A_NUMBER,
2,True,green or low pitch,red or high pitch,forced_choice_sound,20,9,correct,816,Press the according button,images/sound.jpg,sound,9,7,red or high pitch,,0.0,Tue Mar 07 2023 12:27:45 GMT+0100 (Mitteleuropäische Normalzeit),1678188465937,INSERT_A_NUMBER,
2,False,green or low pitch,red or high pitch,pauseScreen,1,7,incorrect,1636,Press the according button,images/red.png,vision,9,7,red or high pitch,,,Tue Mar 07 2023 12:31:40 GMT+0100 (Mitteleuropäische Normalzeit),1678188700594,INSERT_A_NUMBER,
2,False,green or low pitch,red or high pitch,forced_choice_sound,1,9,correct,717,Press the according button,images/red.png,vision,9,7,red or high pitch,,,Tue Mar 07 2023 12:31:40 GMT+0100 (Mitteleuropäische Normalzeit),1678188700594,INSERT_A_NUMBER,
2,False,green or low pitch,red or high pitch,forced_choice_sound,2,7,correct,950,Press the according button,images/sound.jpg,sound,9,7,green or low pitch,,1.0,Tue Mar 07 2023 12:31:40 GMT+0100 (Mitteleuropäische Normalzeit),1678188700594,INSERT_A_NUMBER,
2,False,green or low pitch,red or high pitch,forced_choice_sound,3,7,correct,628,Press the according button,images/green.png,vision,9,7,green or low pitch,,,Tue Mar 07 2023 12:31:40 GMT+0100 (Mitteleuropäische Normalzeit),1678188700594,INSERT_A_NUMBER,
2,False,green or low pitch,red or high pitch,forced_choice_sound,4,7,correct,528,Press the according button,images/green.png,vision,9,7,green or low pitch,,,Tue Mar 07 2023 12:31:40 GMT+0100 (Mitteleuropäische Normalzeit),1678188700594,INSERT_A_NUMBER,
2,False,green or low pitch,red or high pitch,forced_choice_sound,5,7,correct,1003,Press the according button,images/sound.jpg,sound,9,7,green or low pitch,,1.0,Tue Mar 07 2023 12:31:40 GMT+0100 (Mitteleuropäische Normalzeit),1678188700594,INSERT_A_NUMBER,
2,False,green or low pitch,red or high pitch,forced_choice_sound,6,7,correct,714,Press the according button,images/green.png,vision,9,7,green or low pitch,,,Tue Mar 07 2023 12:31:40 GMT+0100 (Mitteleuropäische Normalzeit),1678188700594,INSERT_A_NUMBER,
2,False,green or low pitch,red or high pitch,forced_choice_sound,7,9,correct,671,Press the according button,images/red.png,vision,9,7,red or high pitch,,,Tue Mar 07 2023 12:31:40 GMT+0100 (Mitteleuropäische Normalzeit),1678188700594,INSERT_A_NUMBER,
2,False,green or low pitch,red or high pitch,forced_choice_sound,8,9,correct,855,Press the according button,images/sound.jpg,sound,9,7,red or high pitch,,0.0,Tue Mar 07 2023 12:31:40 GMT+0100 (Mitteleuropäische Normalzeit),1678188700594,INSERT_A_NUMBER,
2,False,green or low pitch,red or high pitch,forced_choice_sound,9,9,correct,768,Press the according button,images/sound.jpg,sound,9,7,red or high pitch,,0.0,Tue Mar 07 2023 12:31:40 GMT+0100 (Mitteleuropäische Normalzeit),1678188700594,INSERT_A_NUMBER,
2,False,green or low pitch,red or high pitch,forced_choice_sound,10,7,correct,810,Press the according button,images/sound.jpg,sound,9,7,green or low pitch,,1.0,Tue Mar 07 2023 12:31:40 GMT+0100 (Mitteleuropäische Normalzeit),1678188700594,INSERT_A_NUMBER,
2,False,green or low pitch,red or high pitch,forced_choice_sound,11,9,correct,956,Press the according button,images/sound.jpg,sound,9,7,red or high pitch,,0.0,Tue Mar 07 2023 12:31:40 GMT+0100 (Mitteleuropäische Normalzeit),1678188700594,INSERT_A_NUMBER,
2,False,green or low pitch,red or high pitch,forced_choice_sound,12,7,correct,669,Press the according button,images/green.png,vision,9,7,green or low pitch,,,Tue Mar 07 2023 12:31:40 GMT+0100 (Mitteleuropäische Normalzeit),1678188700594,INSERT_A_NUMBER,
2,False,green or low pitch,red or high pitch,forced_choice_sound,13,9,correct,672,Press the according button,images/red.png,vision,9,7,red or high pitch,,,Tue Mar 07 2023 12:31:40 GMT+0100 (Mitteleuropäische Normalzeit),1678188700594,INSERT_A_NUMBER,
2,False,green or low pitch,red or high pitch,forced_choice_sound,14,9,correct,527,Press the according button,images/red.png,vision,9,7,red or high pitch,,,Tue Mar 07 2023 12:31:40 GMT+0100 (Mitteleuropäische Normalzeit),1678188700594,INSERT_A_NUMBER,
2,False,green or low pitch,red or high pitch,forced_choice_sound,15,7,correct,2834,Press the according button,images/green.png,vision,9,7,green or low pitch,,,Tue Mar 07 2023 12:31:40 GMT+0100 (Mitteleuropäische Normalzeit),1678188700594,INSERT_A_NUMBER,
2,False,green or low pitch,red or high pitch,forced_choice_sound,16,9,correct,668,Press the according button,images/red.png,vision,9,7,red or high pitch,,,Tue Mar 07 2023 12:31:40 GMT+0100 (Mitteleuropäische Normalzeit),1678188700594,INSERT_A_NUMBER,
2,False,green or low pitch,red or high pitch,forced_choice_sound,17,7,incorrect,1283,Press the according button,images/sound.jpg,sound,9,7,red or high pitch,,0.0,Tue Mar 07 2023 12:31:40 GMT+0100 (Mitteleuropäische Normalzeit),1678188700594,INSERT_A_NUMBER,
2,False,green or low pitch,red or high pitch,forced_choice_sound,18,7,correct,955,Press the according button,images/sound.jpg,sound,9,7,green or low pitch,,1.0,Tue Mar 07 2023 12:31:40 GMT+0100 (Mitteleuropäische Normalzeit),1678188700594,INSERT_A_NUMBER,
2,False,green or low pitch,red or high pitch,forced_choice_sound,19,7,incorrect,106,Press the according button,images/sound.jpg,sound,9,7,red or high pitch,,0.0,Tue Mar 07 2023 12:31:40 GMT+0100 (Mitteleuropäische Normalzeit),1678188700594,INSERT_A_NUMBER,
2,False,green or low pitch,red or high pitch,forced_choice_sound,20,7,correct,1004,Press the according button,images/sound.jpg,sound,9,7,green or low pitch,,1.0,Tue Mar 07 2023 12:31:40 GMT+0100 (Mitteleuropäische Normalzeit),1678188700594,INSERT_A_NUMBER,
3,True,green or low pitch,red or high pitch,pauseScreen,1,7,incorrect,2229,Press the according button,images/red.png,vision,9,7,red or high pitch,,,Tue Mar 07 2023 13:52:16 GMT+0100 (Mitteleuropäische Normalzeit),1678193536695,INSERT_A_NUMBER,
3,True,green or low pitch,red or high pitch,forced_choice_sound,1,9,correct,2128,Press the according button,images/red.png,vision,9,7,red or high pitch,,,Tue Mar 07 2023 13:52:16 GMT+0100 (Mitteleuropäische Normalzeit),1678193536695,INSERT_A_NUMBER,
3,True,green or low pitch,red or high pitch,forced_choice_sound,2,9,incorrect,5137,Press the according button,images/sound.jpg,sound,9,7,green or low pitch,,1.0,Tue Mar 07 2023 13:52:16 GMT+0100 (Mitteleuropäische Normalzeit),1678193536695,INSERT_A_NUMBER,
3,True,green or low pitch,red or high pitch,forced_choice_sound,3,9,correct,719,Press the according button,images/red.png,vision,9,7,red or high pitch,,,Tue Mar 07 2023 13:52:16 GMT+0100 (Mitteleuropäische Normalzeit),1678193536695,INSERT_A_NUMBER,
3,True,green or low pitch,red or high pitch,forced_choice_sound,4,7,incorrect,1139,Press the according button,images/sound.jpg,sound,9,7,red or high pitch,,0.0,Tue Mar 07 2023 13:52:16 GMT+0100 (Mitteleuropäische Normalzeit),1678193536695,INSERT_A_NUMBER,
3,True,green or low pitch,red or high pitch,forced_choice_sound,5,9,incorrect,999,Press the according button,images/sound.jpg,sound,9,7,green or low pitch,,1.0,Tue Mar 07 2023 13:52:16 GMT+0100 (Mitteleuropäische Normalzeit),1678193536695,INSERT_A_NUMBER,
3,True,green or low pitch,red or high pitch,forced_choice_sound,6,7,incorrect,858,Press the according button,images/sound.jpg,sound,9,7,red or high pitch,,0.0,Tue Mar 07 2023 13:52:16 GMT+0100 (Mitteleuropäische Normalzeit),1678193536695,INSERT_A_NUMBER,
3,True,green or low pitch,red or high pitch,forced_choice_sound,7,7,correct,907,Press the according button,images/green.png,vision,9,7,green or low pitch,,,Tue Mar 07 2023 13:52:16 GMT+0100 (Mitteleuropäische Normalzeit),1678193536695,INSERT_A_NUMBER,
3,True,green or low pitch,red or high pitch,forced_choice_sound,8,9,incorrect,908,Press the according button,images/sound.jpg,sound,9,7,green or low pitch,,1.0,Tue Mar 07 2023 13:52:16 GMT+0100 (Mitteleuropäische Normalzeit),1678193536695,INSERT_A_NUMBER,
3,True,green or low pitch,red or high pitch,forced_choice_sound,9,7,incorrect,858,Press the according button,images/sound.jpg,sound,9,7,red or high pitch,,0.0,Tue Mar 07 2023 13:52:16 GMT+0100 (Mitteleuropäische Normalzeit),1678193536695,INSERT_A_NUMBER,
3,True,green or low pitch,red or high pitch,forced_choice_sound,10,7,correct,860,Press the according button,images/green.png,vision,9,7,green or low pitch,,,Tue Mar 07 2023 13:52:16 GMT+0100 (Mitteleuropäische Normalzeit),1678193536695,INSERT_A_NUMBER,
3,True,green or low pitch,red or high pitch,forced_choice_sound,11,9,correct,810,Press the according button,images/red.png,vision,9,7,red or high pitch,,,Tue Mar 07 2023 13:52:16 GMT+0100 (Mitteleuropäische Normalzeit),1678193536695,INSERT_A_NUMBER,
3,True,green or low pitch,red or high pitch,forced_choice_sound,12,7,correct,720,Press the according button,images/green.png,vision,9,7,green or low pitch,,,Tue Mar 07 2023 13:52:16 GMT+0100 (Mitteleuropäische Normalzeit),1678193536695,INSERT_A_NUMBER,
3,True,green or low pitch,red or high pitch,pauseScreen,2,7,correct,1303,Press the according button,images/green.png,vision,9,7,green or low pitch,,,Tue Mar 07 2023 13:52:16 GMT+0100 (Mitteleuropäische Normalzeit),1678193536695,INSERT_A_NUMBER,
3,True,green or low pitch,red or high pitch,forced_choice_sound,1,9,correct,530,Press the according button,images/red.png,vision,9,7,red or high pitch,,,Tue Mar 07 2023 13:52:16 GMT+0100 (Mitteleuropäische Normalzeit),1678193536695,INSERT_A_NUMBER,
3,True,green or low pitch,red or high pitch,forced_choice_sound,2,9,incorrect,1094,Press the according button,images/sound.jpg,sound,9,7,green or low pitch,,1.0,Tue Mar 07 2023 13:52:16 GMT+0100 (Mitteleuropäische Normalzeit),1678193536695,INSERT_A_NUMBER,
3,True,green or low pitch,red or high pitch,forced_choice_sound,3,7,correct,625,Press the according button,images/green.png,vision,9,7,green or low pitch,,,Tue Mar 07 2023 13:52:16 GMT+0100 (Mitteleuropäische Normalzeit),1678193536695,INSERT_A_NUMBER,
3,True,green or low pitch,red or high pitch,forced_choice_sound,4,7,incorrect,768,Press the according button,images/sound.jpg,sound,9,7,red or high pitch,,0.0,Tue Mar 07 2023 13:52:16 GMT+0100 (Mitteleuropäische Normalzeit),1678193536695,INSERT_A_NUMBER,
3,True,green or low pitch,red or high pitch,forced_choice_sound,5,9,incorrect,808,Press the according button,images/sound.jpg,sound,9,7,green or low pitch,,1.0,Tue Mar 07 2023 13:52:16 GMT+0100 (Mitteleuropäische Normalzeit),1678193536695,INSERT_A_NUMBER,
3,True,green or low pitch,red or high pitch,forced_choice_sound,6,9,incorrect,810,Press the according button,images/sound.jpg,sound,9,7,green or low pitch,,1.0,Tue Mar 07 2023 13:52:16 GMT+0100 (Mitteleuropäische Normalzeit),1678193536695,INSERT_A_NUMBER,
3,True,green or low pitch,red or high pitch,forced_choice_sound,7,7,correct,672,Press the according button,images/green.png,vision,9,7,green or low pitch,,,Tue Mar 07 2023 13:52:16 GMT+0100 (Mitteleuropäische Normalzeit),1678193536695,INSERT_A_NUMBER,
3,True,green or low pitch,red or high pitch,forced_choice_sound,8,9,correct,531,Press the according button,images/red.png,vision,9,7,red or high pitch,,,Tue Mar 07 2023 13:52:16 GMT+0100 (Mitteleuropäische Normalzeit),1678193536695,INSERT_A_NUMBER,
3,True,green or low pitch,red or high pitch,forced_choice_sound,9,9,correct,1611,Press the according button,images/red.png,vision,9,7,red or high pitch,,,Tue Mar 07 2023 13:52:16 GMT+0100 (Mitteleuropäische Normalzeit),1678193536695,INSERT_A_NUMBER,
3,True,green or low pitch,red or high pitch,forced_choice_sound,10,7,correct,863,Press the according button,images/green.png,vision,9,7,green or low pitch,,,Tue Mar 07 2023 13:52:16 GMT+0100 (Mitteleuropäische Normalzeit),1678193536695,INSERT_A_NUMBER,
3,True,green or low pitch,red or high pitch,forced_choice_sound,11,7,incorrect,854,Press the according button,images/sound.jpg,sound,9,7,red or high pitch,,0.0,Tue Mar 07 2023 13:52:16 GMT+0100 (Mitteleuropäische Normalzeit),1678193536695,INSERT_A_NUMBER,
3,True,green or low pitch,red or high pitch,forced_choice_sound,12,7,correct,624,Press the according button,images/green.png,vision,9,7,green or low pitch,,,Tue Mar 07 2023 13:52:16 GMT+0100 (Mitteleuropäische Normalzeit),1678193536695,INSERT_A_NUMBER,
3,True,green or low pitch,red or high pitch,forced_choice_sound,13,9,incorrect,766,Press the according button,images/sound.jpg,sound,9,7,green or low pitch,,1.0,Tue Mar 07 2023 13:52:16 GMT+0100 (Mitteleuropäische Normalzeit),1678193536695,INSERT_A_NUMBER,
3,True,green or low pitch,red or high pitch,forced_choice_sound,14,7,incorrect,811,Press the according button,images/sound.jpg,sound,9,7,red or high pitch,,0.0,Tue Mar 07 2023 13:52:16 GMT+0100 (Mitteleuropäische Normalzeit),1678193536695,INSERT_A_NUMBER,
3,True,green or low pitch,red or high pitch,forced_choice_sound,15,7,incorrect,720,Press the according button,images/sound.jpg,sound,9,7,red or high pitch,,0.0,Tue Mar 07 2023 13:52:16 GMT+0100 (Mitteleuropäische Normalzeit),1678193536695,INSERT_A_NUMBER,
3,True,green or low pitch,red or high pitch,forced_choice_sound,16,7,correct,719,Press the according button,images/green.png,vision,9,7,green or low pitch,,,Tue Mar 07 2023 13:52:16 GMT+0100 (Mitteleuropäische Normalzeit),1678193536695,INSERT_A_NUMBER,
3,True,green or low pitch,red or high pitch,forced_choice_sound,17,9,incorrect,762,Press the according button,images/sound.jpg,sound,9,7,green or low pitch,,1.0,Tue Mar 07 2023 13:52:16 GMT+0100 (Mitteleuropäische Normalzeit),1678193536695,INSERT_A_NUMBER,
3,True,green or low pitch,red or high pitch,forced_choice_sound,18,9,correct,623,Press the according button,images/red.png,vision,9,7,red or high pitch,,,Tue Mar 07 2023 13:52:16 GMT+0100 (Mitteleuropäische Normalzeit),1678193536695,INSERT_A_NUMBER,
3,True,green or low pitch,red or high pitch,forced_choice_sound,19,9,correct,622,Press the according button,images/red.png,vision,9,7,red or high pitch,,,Tue Mar 07 2023 13:52:16 GMT+0100 (Mitteleuropäische Normalzeit),1678193536695,INSERT_A_NUMBER,
3,True,green or low pitch,red or high pitch,forced_choice_sound,20,7,incorrect,719,Press the according button,images/sound.jpg,sound,9,7,red or high pitch,,0.0,Tue Mar 07 2023 13:52:16 GMT+0100 (Mitteleuropäische Normalzeit),1678193536695,INSERT_A_NUMBER,
3,False,green or low pitch,red or high pitch,pauseScreen,1,7,incorrect,2101,Press the according button,images/red.png,vision,9,7,red or high pitch,,,Tue Mar 07 2023 14:04:03 GMT+0100 (Mitteleuropäische Normalzeit),1678194243698,INSERT_A_NUMBER,
3,False,green or low pitch,red or high pitch,forced_choice_sound,1,9,correct,626,Press the according button,images/red.png,vision,9,7,red or high pitch,,,Tue Mar 07 2023 14:04:03 GMT+0100 (Mitteleuropäische Normalzeit),1678194243698,INSERT_A_NUMBER,
3,False,green or low pitch,red or high pitch,forced_choice_sound,2,9,correct,574,Press the according button,images/red.png,vision,9,7,red or high pitch,,,Tue Mar 07 2023 14:04:03 GMT+0100 (Mitteleuropäische Normalzeit),1678194243698,INSERT_A_NUMBER,
3,False,green or low pitch,red or high pitch,forced_choice_sound,3,9,incorrect,1751,Press the according button,images/green.png,vision,9,7,green or low pitch,,,Tue Mar 07 2023 14:04:03 GMT+0100 (Mitteleuropäische Normalzeit),1678194243698,INSERT_A_NUMBER,
3,False,green or low pitch,red or high pitch,forced_choice_sound,4,9,incorrect,3260,Press the according button,images/sound.jpg,sound,9,7,green or low pitch,,1.0,Tue Mar 07 2023 14:04:03 GMT+0100 (Mitteleuropäische Normalzeit),1678194243698,INSERT_A_NUMBER,
3,False,green or low pitch,red or high pitch,forced_choice_sound,5,7,correct,1610,Press the according button,images/sound.jpg,sound,9,7,green or low pitch,,1.0,Tue Mar 07 2023 14:04:03 GMT+0100 (Mitteleuropäische Normalzeit),1678194243698,INSERT_A_NUMBER,
3,False,green or low pitch,red or high pitch,forced_choice_sound,6,9,correct,862,Press the according button,images/sound.jpg,sound,9,7,red or high pitch,,0.0,Tue Mar 07 2023 14:04:03 GMT+0100 (Mitteleuropäische Normalzeit),1678194243698,INSERT_A_NUMBER,
3,False,green or low pitch,red or high pitch,forced_choice_sound,7,9,correct,903,Press the according button,images/red.png,vision,9,7,red or high pitch,,,Tue Mar 07 2023 14:04:03 GMT+0100 (Mitteleuropäische Normalzeit),1678194243698,INSERT_A_NUMBER,
3,False,green or low pitch,red or high pitch,forced_choice_sound,8,9,correct,1002,Press the according button,images/sound.jpg,sound,9,7,red or high pitch,,0.0,Tue Mar 07 2023 14:04:03 GMT+0100 (Mitteleuropäische Normalzeit),1678194243698,INSERT_A_NUMBER,
3,False,green or low pitch,red or high pitch,forced_choice_sound,9,9,correct,1094,Press the according button,images/sound.jpg,sound,9,7,red or high pitch,,0.0,Tue Mar 07 2023 14:04:03 GMT+0100 (Mitteleuropäische Normalzeit),1678194243698,INSERT_A_NUMBER,
3,False,green or low pitch,red or high pitch,forced_choice_sound,10,9,correct,909,Press the according button,images/sound.jpg,sound,9,7,red or high pitch,,0.0,Tue Mar 07 2023 14:04:03 GMT+0100 (Mitteleuropäische Normalzeit),1678194243698,INSERT_A_NUMBER,
3,False,green or low pitch,red or high pitch,forced_choice_sound,11,7,correct,905,Press the according button,images/sound.jpg,sound,9,7,green or low pitch,,1.0,Tue Mar 07 2023 14:04:03 GMT+0100 (Mitteleuropäische Normalzeit),1678194243698,INSERT_A_NUMBER,
3,False,green or low pitch,red or high pitch,forced_choice_sound,12,9,correct,720,Press the according button,images/red.png,vision,9,7,red or high pitch,,,Tue Mar 07 2023 14:04:03 GMT+0100 (Mitteleuropäische Normalzeit),1678194243698,INSERT_A_NUMBER,
3,False,green or low pitch,red or high pitch,forced_choice_sound,13,7,correct,762,Press the according button,images/green.png,vision,9,7,green or low pitch,,,Tue Mar 07 2023 14:04:03 GMT+0100 (Mitteleuropäische Normalzeit),1678194243698,INSERT_A_NUMBER,
3,False,green or low pitch,red or high pitch,forced_choice_sound,14,7,correct,951,Press the according button,images/sound.jpg,sound,9,7,green or low pitch,,1.0,Tue Mar 07 2023 14:04:03 GMT+0100 (Mitteleuropäische Normalzeit),1678194243698,INSERT_A_NUMBER,
3,False,green or low pitch,red or high pitch,forced_choice_sound,15,7,correct,672,Press the according button,images/green.png,vision,9,7,green or low pitch,,,Tue Mar 07 2023 14:04:03 GMT+0100 (Mitteleuropäische Normalzeit),1678194243698,INSERT_A_NUMBER,
3,False,green or low pitch,red or high pitch,forced_choice_sound,16,7,incorrect,903,Press the according button,images/sound.jpg,sound,9,7,red or high pitch,,0.0,Tue Mar 07 2023 14:04:03 GMT+0100 (Mitteleuropäische Normalzeit),1678194243698,INSERT_A_NUMBER,
3,False,green or low pitch,red or high pitch,forced_choice_sound,17,7,correct,1139,Press the according button,images/sound.jpg,sound,9,7,green or low pitch,,1.0,Tue Mar 07 2023 14:04:03 GMT+0100 (Mitteleuropäische Normalzeit),1678194243698,INSERT_A_NUMBER,
3,False,green or low pitch,red or high pitch,forced_choice_sound,18,7,correct,767,Press the according button,images/green.png,vision,9,7,green or low pitch,,,Tue Mar 07 2023 14:04:03 GMT+0100 (Mitteleuropäische Normalzeit),1678194243698,INSERT_A_NUMBER,
3,False,green or low pitch,red or high pitch,forced_choice_sound,19,9,correct,763,Press the according button,images/red.png,vision,9,7,red or high pitch,,,Tue Mar 07 2023 14:04:03 GMT+0100 (Mitteleuropäische Normalzeit),1678194243698,INSERT_A_NUMBER,
3,False,green or low pitch,red or high pitch,forced_choice_sound,20,7,correct,718,Press the according button,images/green.png,vision,9,7,green or low pitch,,,Tue Mar 07 2023 14:04:03 GMT+0100 (Mitteleuropäische Normalzeit),1678194243698,INSERT_A_NUMBER,
4,True,green or low pitch,red or high pitch,pauseScreen,1,9,correct,3238,Press the according button,images/red.png,vision,9,7,red or high pitch,,,Tue Mar 07 2023 14:42:30 GMT+0100 (Mitteleuropäische Normalzeit),1678196550816,INSERT_A_NUMBER,
4,True,green or low pitch,red or high pitch,forced_choice_sound,1,9,correct,1026,Press the according button,images/red.png,vision,9,7,red or high pitch,,,Tue Mar 07 2023 14:42:30 GMT+0100 (Mitteleuropäische Normalzeit),1678196550816,INSERT_A_NUMBER,
4,True,green or low pitch,red or high pitch,forced_choice_sound,2,7,correct,5463,Press the according button,images/sound.jpg,sound,9,7,green or low pitch,,1.0,Tue Mar 07 2023 14:42:30 GMT+0100 (Mitteleuropäische Normalzeit),1678196550816,INSERT_A_NUMBER,
4,True,green or low pitch,red or high pitch,forced_choice_sound,3,9,correct,714,Press the according button,images/red.png,vision,9,7,red or high pitch,,,Tue Mar 07 2023 14:42:30 GMT+0100 (Mitteleuropäische Normalzeit),1678196550816,INSERT_A_NUMBER,
4,True,green or low pitch,red or high pitch,forced_choice_sound,4,7,correct,806,Press the according button,images/green.png,vision,9,7,green or low pitch,,,Tue Mar 07 2023 14:42:30 GMT+0100 (Mitteleuropäische Normalzeit),1678196550816,INSERT_A_NUMBER,
4,True,green or low pitch,red or high pitch,forced_choice_sound,5,7,incorrect,10071,Press the according button,images/sound.jpg,sound,9,7,red or high pitch,,0.0,Tue Mar 07 2023 14:42:30 GMT+0100 (Mitteleuropäische Normalzeit),1678196550816,INSERT_A_NUMBER,
4,True,green or low pitch,red or high pitch,forced_choice_sound,6,7,incorrect,7060,Press the according button,images/sound.jpg,sound,9,7,red or high pitch,,0.0,Tue Mar 07 2023 14:42:30 GMT+0100 (Mitteleuropäische Normalzeit),1678196550816,INSERT_A_NUMBER,
4,True,green or low pitch,red or high pitch,forced_choice_sound,7,7,correct,2263,Press the according button,images/sound.jpg,sound,9,7,green or low pitch,,1.0,Tue Mar 07 2023 14:42:30 GMT+0100 (Mitteleuropäische Normalzeit),1678196550816,INSERT_A_NUMBER,
4,True,green or low pitch,red or high pitch,forced_choice_sound,8,7,correct,999,Press the according button,images/green.png,vision,9,7,green or low pitch,,,Tue Mar 07 2023 14:42:30 GMT+0100 (Mitteleuropäische Normalzeit),1678196550816,INSERT_A_NUMBER,
4,True,green or low pitch,red or high pitch,forced_choice_sound,9,9,correct,2411,Press the according button,images/sound.jpg,sound,9,7,red or high pitch,,0.0,Tue Mar 07 2023 14:42:30 GMT+0100 (Mitteleuropäische Normalzeit),1678196550816,INSERT_A_NUMBER,
4,True,green or low pitch,red or high pitch,forced_choice_sound,10,7,correct,3679,Press the according button,images/green.png,vision,9,7,green or low pitch,,,Tue Mar 07 2023 14:42:30 GMT+0100 (Mitteleuropäische Normalzeit),1678196550816,INSERT_A_NUMBER,
4,True,green or low pitch,red or high pitch,forced_choice_sound,11,9,correct,855,Press the according button,images/red.png,vision,9,7,red or high pitch,,,Tue Mar 07 2023 14:42:30 GMT+0100 (Mitteleuropäische Normalzeit),1678196550816,INSERT_A_NUMBER,
4,True,green or low pitch,red or high pitch,forced_choice_sound,12,7,correct,2740,Press the according button,images/sound.jpg,sound,9,7,green or low pitch,,1.0,Tue Mar 07 2023 14:42:30 GMT+0100 (Mitteleuropäische Normalzeit),1678196550816,INSERT_A_NUMBER,
4,True,green or low pitch,red or high pitch,pauseScreen,2,7,correct,2434,Press the according button,images/green.png,vision,9,7,green or low pitch,,,Tue Mar 07 2023 14:42:30 GMT+0100 (Mitteleuropäische Normalzeit),1678196550816,INSERT_A_NUMBER,
4,True,green or low pitch,red or high pitch,forced_choice_sound,1,9,correct,580,Press the according button,images/red.png,vision,9,7,red or high pitch,,,Tue Mar 07 2023 14:42:30 GMT+0100 (Mitteleuropäische Normalzeit),1678196550816,INSERT_A_NUMBER,
4,True,green or low pitch,red or high pitch,forced_choice_sound,2,7,correct,1327,Press the according button,images/sound.jpg,sound,9,7,green or low pitch,,1.0,Tue Mar 07 2023 14:42:30 GMT+0100 (Mitteleuropäische Normalzeit),1678196550816,INSERT_A_NUMBER,
4,True,green or low pitch,red or high pitch,forced_choice_sound,3,9,correct,670,Press the according button,images/red.png,vision,9,7,red or high pitch,,,Tue Mar 07 2023 14:42:30 GMT+0100 (Mitteleuropäische Normalzeit),1678196550816,INSERT_A_NUMBER,
4,True,green or low pitch,red or high pitch,forced_choice_sound,4,7,correct,859,Press the according button,images/green.png,vision,9,7,green or low pitch,,,Tue Mar 07 2023 14:42:30 GMT+0100 (Mitteleuropäische Normalzeit),1678196550816,INSERT_A_NUMBER,
4,True,green or low pitch,red or high pitch,forced_choice_sound,5,7,correct,719,Press the according button,images/green.png,vision,9,7,green or low pitch,,,Tue Mar 07 2023 14:42:30 GMT+0100 (Mitteleuropäische Normalzeit),1678196550816,INSERT_A_NUMBER,
4,True,green or low pitch,red or high pitch,forced_choice_sound,6,7,correct,903,Press the according button,images/green.png,vision,9,7,green or low pitch,,,Tue Mar 07 2023 14:42:30 GMT+0100 (Mitteleuropäische Normalzeit),1678196550816,INSERT_A_NUMBER,
4,True,green or low pitch,red or high pitch,forced_choice_sound,7,9,incorrect,1515,Press the according button,images/sound.jpg,sound,9,7,green or low pitch,,1.0,Tue Mar 07 2023 14:42:30 GMT+0100 (Mitteleuropäische Normalzeit),1678196550816,INSERT_A_NUMBER,
4,True,green or low pitch,red or high pitch,forced_choice_sound,8,7,incorrect,950,Press the according button,images/sound.jpg,sound,9,7,red or high pitch,,0.0,Tue Mar 07 2023 14:42:30 GMT+0100 (Mitteleuropäische Normalzeit),1678196550816,INSERT_A_NUMBER,
4,True,green or low pitch,red or high pitch,forced_choice_sound,9,9,correct,952,Press the according button,images/sound.jpg,sound,9,7,red or high pitch,,0.0,Tue Mar 07 2023 14:42:30 GMT+0100 (Mitteleuropäische Normalzeit),1678196550816,INSERT_A_NUMBER,
4,True,green or low pitch,red or high pitch,forced_choice_sound,10,7,correct,907,Press the according button,images/green.png,vision,9,7,green or low pitch,,,Tue Mar 07 2023 14:42:30 GMT+0100 (Mitteleuropäische Normalzeit),1678196550816,INSERT_A_NUMBER,
4,True,green or low pitch,red or high pitch,forced_choice_sound,11,9,correct,667,Press the according button,images/red.png,vision,9,7,red or high pitch,,,Tue Mar 07 2023 14:42:30 GMT+0100 (Mitteleuropäische Normalzeit),1678196550816,INSERT_A_NUMBER,
4,True,green or low pitch,red or high pitch,forced_choice_sound,12,7,incorrect,811,Press the according button,images/sound.jpg,sound,9,7,red or high pitch,,0.0,Tue Mar 07 2023 14:42:30 GMT+0100 (Mitteleuropäische Normalzeit),1678196550816,INSERT_A_NUMBER,
4,True,green or low pitch,red or high pitch,forced_choice_sound,13,7,incorrect,1139,Press the according button,images/red.png,vision,9,7,red or high pitch,,,Tue Mar 07 2023 14:42:30 GMT+0100 (Mitteleuropäische Normalzeit),1678196550816,INSERT_A_NUMBER,
4,True,green or low pitch,red or high pitch,forced_choice_sound,14,9,correct,1091,Press the according button,images/sound.jpg,sound,9,7,red or high pitch,,0.0,Tue Mar 07 2023 14:42:30 GMT+0100 (Mitteleuropäische Normalzeit),1678196550816,INSERT_A_NUMBER,
4,True,green or low pitch,red or high pitch,forced_choice_sound,15,9,correct,901,Press the according button,images/sound.jpg,sound,9,7,red or high pitch,,0.0,Tue Mar 07 2023 14:42:30 GMT+0100 (Mitteleuropäische Normalzeit),1678196550816,INSERT_A_NUMBER,
4,True,green or low pitch,red or high pitch,forced_choice_sound,16,7,correct,908,Press the according button,images/sound.jpg,sound,9,7,green or low pitch,,1.0,Tue Mar 07 2023 14:42:30 GMT+0100 (Mitteleuropäische Normalzeit),1678196550816,INSERT_A_NUMBER,
4,True,green or low pitch,red or high pitch,forced_choice_sound,17,7,correct,860,Press the according button,images/sound.jpg,sound,9,7,green or low pitch,,1.0,Tue Mar 07 2023 14:42:30 GMT+0100 (Mitteleuropäische Normalzeit),1678196550816,INSERT_A_NUMBER,
4,True,green or low pitch,red or high pitch,forced_choice_sound,18,7,correct,714,Press the according button,images/sound.jpg,sound,9,7,green or low pitch,,1.0,Tue Mar 07 2023 14:42:30 GMT+0100 (Mitteleuropäische Normalzeit),1678196550816,INSERT_A_NUMBER,
4,True,green or low pitch,red or high pitch,forced_choice_sound,19,9,correct,626,Press the according button,images/red.png,vision,9,7,red or high pitch,,,Tue Mar 07 2023 14:42:30 GMT+0100 (Mitteleuropäische Normalzeit),1678196550816,INSERT_A_NUMBER,
4,True,green or low pitch,red or high pitch,forced_choice_sound,20,7,correct,669,Press the according button,images/green.png,vision,9,7,green or low pitch,,,Tue Mar 07 2023 14:42:30 GMT+0100 (Mitteleuropäische Normalzeit),1678196550816,INSERT_A_NUMBER,
4,False,green or low pitch,red or high pitch,pauseScreen,1,9,correct,1027,Press the according button,images/red.png,vision,9,7,red or high pitch,,,Tue Mar 07 2023 14:52:43 GMT+0100 (Mitteleuropäische Normalzeit),1678197163063,INSERT_A_NUMBER,
4,False,green or low pitch,red or high pitch,forced_choice_sound,1,9,correct,670,Press the according button,images/red.png,vision,9,7,red or high pitch,,,Tue Mar 07 2023 14:52:43 GMT+0100 (Mitteleuropäische Normalzeit),1678197163063,INSERT_A_NUMBER,
4,False,green or low pitch,red or high pitch,forced_choice_sound,2,7,correct,950,Press the according button,images/sound.jpg,sound,9,7,green or low pitch,,1.0,Tue Mar 07 2023 14:52:43 GMT+0100 (Mitteleuropäische Normalzeit),1678197163063,INSERT_A_NUMBER,
4,False,green or low pitch,red or high pitch,forced_choice_sound,3,9,incorrect,860,Press the according button,images/green.png,vision,9,7,green or low pitch,,,Tue Mar 07 2023 14:52:43 GMT+0100 (Mitteleuropäische Normalzeit),1678197163063,INSERT_A_NUMBER,
4,False,green or low pitch,red or high pitch,forced_choice_sound,4,7,incorrect,154,Press the according button,images/red.png,vision,9,7,red or high pitch,,,Tue Mar 07 2023 14:52:43 GMT+0100 (Mitteleuropäische Normalzeit),1678197163063,INSERT_A_NUMBER,
4,False,green or low pitch,red or high pitch,forced_choice_sound,5,9,incorrect,1045,Press the according button,images/sound.jpg,sound,9,7,green or low pitch,,1.0,Tue Mar 07 2023 14:52:43 GMT+0100 (Mitteleuropäische Normalzeit),1678197163063,INSERT_A_NUMBER,
4,False,green or low pitch,red or high pitch,forced_choice_sound,6,7,incorrect,859,Press the according button,images/sound.jpg,sound,9,7,red or high pitch,,0.0,Tue Mar 07 2023 14:52:43 GMT+0100 (Mitteleuropäische Normalzeit),1678197163063,INSERT_A_NUMBER,
4,False,green or low pitch,red or high pitch,forced_choice_sound,7,7,correct,908,Press the according button,images/green.png,vision,9,7,green or low pitch,,,Tue Mar 07 2023 14:52:43 GMT+0100 (Mitteleuropäische Normalzeit),1678197163063,INSERT_A_NUMBER,
4,False,green or low pitch,red or high pitch,forced_choice_sound,8,9,incorrect,860,Press the according button,images/sound.jpg,sound,9,7,green or low pitch,,1.0,Tue Mar 07 2023 14:52:43 GMT+0100 (Mitteleuropäische Normalzeit),1678197163063,INSERT_A_NUMBER,
4,False,green or low pitch,red or high pitch,forced_choice_sound,9,9,correct,1142,Press the according button,images/red.png,vision,9,7,red or high pitch,,,Tue Mar 07 2023 14:52:43 GMT+0100 (Mitteleuropäische Normalzeit),1678197163063,INSERT_A_NUMBER,
4,False,green or low pitch,red or high pitch,forced_choice_sound,10,7,incorrect,907,Press the according button,images/sound.jpg,sound,9,7,red or high pitch,,0.0,Tue Mar 07 2023 14:52:43 GMT+0100 (Mitteleuropäische Normalzeit),1678197163063,INSERT_A_NUMBER,
4,False,green or low pitch,red or high pitch,forced_choice_sound,11,7,correct,762,Press the according button,images/green.png,vision,9,7,green or low pitch,,,Tue Mar 07 2023 14:52:43 GMT+0100 (Mitteleuropäische Normalzeit),1678197163063,INSERT_A_NUMBER,
4,False,green or low pitch,red or high pitch,forced_choice_sound,12,7,incorrect,860,Press the according button,images/sound.jpg,sound,9,7,red or high pitch,,0.0,Tue Mar 07 2023 14:52:43 GMT+0100 (Mitteleuropäische Normalzeit),1678197163063,INSERT_A_NUMBER,
4,False,green or low pitch,red or high pitch,pauseScreen,2,7,correct,1892,Press the according button,images/green.png,vision,9,7,green or low pitch,,,Tue Mar 07 2023 14:52:43 GMT+0100 (Mitteleuropäische Normalzeit),1678197163063,INSERT_A_NUMBER,
4,False,green or low pitch,red or high pitch,forced_choice_sound,1,9,correct,578,Press the according button,images/red.png,vision,9,7,red or high pitch,,,Tue Mar 07 2023 14:52:43 GMT+0100 (Mitteleuropäische Normalzeit),1678197163063,INSERT_A_NUMBER,
4,False,green or low pitch,red or high pitch,forced_choice_sound,2,7,incorrect,907,Press the according button,images/sound.jpg,sound,9,7,red or high pitch,,0.0,Tue Mar 07 2023 14:52:43 GMT+0100 (Mitteleuropäische Normalzeit),1678197163063,INSERT_A_NUMBER,
4,False,green or low pitch,red or high pitch,forced_choice_sound,3,7,correct,1007,Press the according button,images/sound.jpg,sound,9,7,green or low pitch,,1.0,Tue Mar 07 2023 14:52:43 GMT+0100 (Mitteleuropäische Normalzeit),1678197163063,INSERT_A_NUMBER,
4,False,green or low pitch,red or high pitch,forced_choice_sound,4,9,incorrect,613,Press the according button,images/green.png,vision,9,7,green or low pitch,,,Tue Mar 07 2023 14:52:43 GMT+0100 (Mitteleuropäische Normalzeit),1678197163063,INSERT_A_NUMBER,
4,False,green or low pitch,red or high pitch,forced_choice_sound,5,7,incorrect,904,Press the according button,images/sound.jpg,sound,9,7,red or high pitch,,0.0,Tue Mar 07 2023 14:52:43 GMT+0100 (Mitteleuropäische Normalzeit),1678197163063,INSERT_A_NUMBER,
4,False,green or low pitch,red or high pitch,forced_choice_sound,6,7,correct,720,Press the according button,images/sound.jpg,sound,9,7,green or low pitch,,1.0,Tue Mar 07 2023 14:52:43 GMT+0100 (Mitteleuropäische Normalzeit),1678197163063,INSERT_A_NUMBER,
4,False,green or low pitch,red or high pitch,forced_choice_sound,7,9,correct,809,Press the according button,images/red.png,vision,9,7,red or high pitch,,,Tue Mar 07 2023 14:52:43 GMT+0100 (Mitteleuropäische Normalzeit),1678197163063,INSERT_A_NUMBER,
4,False,green or low pitch,red or high pitch,forced_choice_sound,8,7,correct,671,Press the according button,images/green.png,vision,9,7,green or low pitch,,,Tue Mar 07 2023 14:52:43 GMT+0100 (Mitteleuropäische Normalzeit),1678197163063,INSERT_A_NUMBER,
4,False,green or low pitch,red or high pitch,forced_choice_sound,9,9,incorrect,1047,Press the according button,images/sound.jpg,sound,9,7,green or low pitch,,1.0,Tue Mar 07 2023 14:52:43 GMT+0100 (Mitteleuropäische Normalzeit),1678197163063,INSERT_A_NUMBER,
4,False,green or low pitch,red or high pitch,forced_choice_sound,10,9,correct,1143,Press the according button,images/red.png,vision,9,7,red or high pitch,,,Tue Mar 07 2023 14:52:43 GMT+0100 (Mitteleuropäische Normalzeit),1678197163063,INSERT_A_NUMBER,
4,False,green or low pitch,red or high pitch,forced_choice_sound,11,7,correct,577,Press the according button,images/green.png,vision,9,7,green or low pitch,,,Tue Mar 07 2023 14:52:43 GMT+0100 (Mitteleuropäische Normalzeit),1678197163063,INSERT_A_NUMBER,
4,False,green or low pitch,red or high pitch,forced_choice_sound,12,9,correct,904,Press the according button,images/red.png,vision,9,7,red or high pitch,,,Tue Mar 07 2023 14:52:43 GMT+0100 (Mitteleuropäische Normalzeit),1678197163063,INSERT_A_NUMBER,
4,False,green or low pitch,red or high pitch,forced_choice_sound,13,7,incorrect,812,Press the according button,images/sound.jpg,sound,9,7,red or high pitch,,0.0,Tue Mar 07 2023 14:52:43 GMT+0100 (Mitteleuropäische Normalzeit),1678197163063,INSERT_A_NUMBER,
4,False,green or low pitch,red or high pitch,forced_choice_sound,14,7,correct,858,Press the according button,images/sound.jpg,sound,9,7,green or low pitch,,1.0,Tue Mar 07 2023 14:52:43 GMT+0100 (Mitteleuropäische Normalzeit),1678197163063,INSERT_A_NUMBER,
4,False,green or low pitch,red or high pitch,forced_choice_sound,15,9,incorrect,626,Press the according button,images/green.png,vision,9,7,green or low pitch,,,Tue Mar 07 2023 14:52:43 GMT+0100 (Mitteleuropäische Normalzeit),1678197163063,INSERT_A_NUMBER,
4,False,green or low pitch,red or high pitch,forced_choice_sound,16,7,incorrect,812,Press the according button,images/sound.jpg,sound,9,7,red or high pitch,,0.0,Tue Mar 07 2023 14:52:43 GMT+0100 (Mitteleuropäische Normalzeit),1678197163063,INSERT_A_NUMBER,
4,False,green or low pitch,red or high pitch,forced_choice_sound,17,7,correct,621,Press the according button,images/green.png,vision,9,7,green or low pitch,,,Tue Mar 07 2023 14:52:43 GMT+0100 (Mitteleuropäische Normalzeit),1678197163063,INSERT_A_NUMBER,
4,False,green or low pitch,red or high pitch,forced_choice_sound,18,7,incorrect,768,Press the according button,images/sound.jpg,sound,9,7,red or high pitch,,0.0,Tue Mar 07 2023 14:52:43 GMT+0100 (Mitteleuropäische Normalzeit),1678197163063,INSERT_A_NUMBER,
4,False,green or low pitch,red or high pitch,forced_choice_sound,19,9,incorrect,1141,Press the according button,images/sound.jpg,sound,9,7,green or low pitch,,1.0,Tue Mar 07 2023 14:52:43 GMT+0100 (Mitteleuropäische Normalzeit),1678197163063,INSERT_A_NUMBER,
4,False,green or low pitch,red or high pitch,forced_choice_sound,20,7,incorrect,1278,Press the according button,images/red.png,vision,9,7,red or high pitch,,,Tue Mar 07 2023 14:52:43 GMT+0100 (Mitteleuropäische Normalzeit),1678197163063,INSERT_A_NUMBER,
5,True,green or low pitch,red or high pitch,pauseScreen,1,9,correct,28205,Press the according button,images/red.png,vision,9,7,red or high pitch,,,Tue Mar 07 2023 15:00:16 GMT+0100 (Mitteleuropäische Normalzeit),1678197616220,INSERT_A_NUMBER,
5,True,green or low pitch,red or high pitch,forced_choice_sound,1,9,correct,5555,Press the according button,images/red.png,vision,9,7,red or high pitch,,,Tue Mar 07 2023 15:00:16 GMT+0100 (Mitteleuropäische Normalzeit),1678197616220,INSERT_A_NUMBER,
5,True,green or low pitch,red or high pitch,forced_choice_sound,2,7,correct,8519,Press the according button,images/sound.jpg,sound,9,7,green or low pitch,,1.0,Tue Mar 07 2023 15:00:16 GMT+0100 (Mitteleuropäische Normalzeit),1678197616220,INSERT_A_NUMBER,
5,True,green or low pitch,red or high pitch,forced_choice_sound,3,7,correct,5184,Press the according button,images/green.png,vision,9,7,green or low pitch,,,Tue Mar 07 2023 15:00:16 GMT+0100 (Mitteleuropäische Normalzeit),1678197616220,INSERT_A_NUMBER,
5,True,green or low pitch,red or high pitch,forced_choice_sound,4,9,incorrect,3398,Press the according button,images/sound.jpg,sound,9,7,green or low pitch,,1.0,Tue Mar 07 2023 15:00:16 GMT+0100 (Mitteleuropäische Normalzeit),1678197616220,INSERT_A_NUMBER,
5,True,green or low pitch,red or high pitch,forced_choice_sound,5,9,correct,2500,Press the according button,images/sound.jpg,sound,9,7,red or high pitch,,0.0,Tue Mar 07 2023 15:00:16 GMT+0100 (Mitteleuropäische Normalzeit),1678197616220,INSERT_A_NUMBER,
5,True,green or low pitch,red or high pitch,forced_choice_sound,6,9,correct,1187,Press the according button,images/sound.jpg,sound,9,7,red or high pitch,,0.0,Tue Mar 07 2023 15:00:16 GMT+0100 (Mitteleuropäische Normalzeit),1678197616220,INSERT_A_NUMBER,
5,True,green or low pitch,red or high pitch,forced_choice_sound,7,7,correct,1703,Press the according button,images/green.png,vision,9,7,green or low pitch,,,Tue Mar 07 2023 15:00:16 GMT+0100 (Mitteleuropäische Normalzeit),1678197616220,INSERT_A_NUMBER,
5,True,green or low pitch,red or high pitch,forced_choice_sound,8,9,correct,995,Press the according button,images/red.png,vision,9,7,red or high pitch,,,Tue Mar 07 2023 15:00:16 GMT+0100 (Mitteleuropäische Normalzeit),1678197616220,INSERT_A_NUMBER,
5,True,green or low pitch,red or high pitch,forced_choice_sound,9,9,correct,2460,Press the according button,images/sound.jpg,sound,9,7,red or high pitch,,0.0,Tue Mar 07 2023 15:00:16 GMT+0100 (Mitteleuropäische Normalzeit),1678197616220,INSERT_A_NUMBER,
5,True,green or low pitch,red or high pitch,forced_choice_sound,10,7,correct,1466,Press the according button,images/green.png,vision,9,7,green or low pitch,,,Tue Mar 07 2023 15:00:16 GMT+0100 (Mitteleuropäische Normalzeit),1678197616220,INSERT_A_NUMBER,
5,True,green or low pitch,red or high pitch,forced_choice_sound,11,9,correct,1371,Press the according button,images/red.png,vision,9,7,red or high pitch,,,Tue Mar 07 2023 15:00:16 GMT+0100 (Mitteleuropäische Normalzeit),1678197616220,INSERT_A_NUMBER,
5,True,green or low pitch,red or high pitch,forced_choice_sound,12,7,correct,1467,Press the according button,images/sound.jpg,sound,9,7,green or low pitch,,1.0,Tue Mar 07 2023 15:00:16 GMT+0100 (Mitteleuropäische Normalzeit),1678197616220,INSERT_A_NUMBER,
5,True,green or low pitch,red or high pitch,pauseScreen,2,7,correct,3796,Press the according button,images/green.png,vision,9,7,green or low pitch,,,Tue Mar 07 2023 15:00:16 GMT+0100 (Mitteleuropäische Normalzeit),1678197616220,INSERT_A_NUMBER,
5,True,green or low pitch,red or high pitch,forced_choice_sound,1,9,correct,1279,Press the according button,images/red.png,vision,9,7,red or high pitch,,,Tue Mar 07 2023 15:00:16 GMT+0100 (Mitteleuropäische Normalzeit),1678197616220,INSERT_A_NUMBER,
5,True,green or low pitch,red or high pitch,forced_choice_sound,2,9,correct,1799,Press the according button,images/sound.jpg,sound,9,7,red or high pitch,,0.0,Tue Mar 07 2023 15:00:16 GMT+0100 (Mitteleuropäische Normalzeit),1678197616220,INSERT_A_NUMBER,
5,True,green or low pitch,red or high pitch,forced_choice_sound,3,9,correct,999,Press the according button,images/sound.jpg,sound,9,7,red or high pitch,,0.0,Tue Mar 07 2023 15:00:16 GMT+0100 (Mitteleuropäische Normalzeit),1678197616220,INSERT_A_NUMBER,
5,True,green or low pitch,red or high pitch,forced_choice_sound,4,9,correct,813,Press the according button,images/red.png,vision,9,7,red or high pitch,,,Tue Mar 07 2023 15:00:16 GMT+0100 (Mitteleuropäische Normalzeit),1678197616220,INSERT_A_NUMBER,
5,True,green or low pitch,red or high pitch,forced_choice_sound,5,7,correct,998,Press the according button,images/sound.jpg,sound,9,7,green or low pitch,,1.0,Tue Mar 07 2023 15:00:16 GMT+0100 (Mitteleuropäische Normalzeit),1678197616220,INSERT_A_NUMBER,
5,True,green or low pitch,red or high pitch,forced_choice_sound,6,7,correct,763,Press the according button,images/green.png,vision,9,7,green or low pitch,,,Tue Mar 07 2023 15:00:16 GMT+0100 (Mitteleuropäische Normalzeit),1678197616220,INSERT_A_NUMBER,
5,True,green or low pitch,red or high pitch,forced_choice_sound,7,7,correct,857,Press the according button,images/green.png,vision,9,7,green or low pitch,,,Tue Mar 07 2023 15:00:16 GMT+0100 (Mitteleuropäische Normalzeit),1678197616220,INSERT_A_NUMBER,
5,True,green or low pitch,red or high pitch,forced_choice_sound,8,9,correct,666,Press the according button,images/red.png,vision,9,7,red or high pitch,,,Tue Mar 07 2023 15:00:16 GMT+0100 (Mitteleuropäische Normalzeit),1678197616220,INSERT_A_NUMBER,
5,True,green or low pitch,red or high pitch,forced_choice_sound,9,7,incorrect,950,Press the according button,images/sound.jpg,sound,9,7,red or high pitch,,0.0,Tue Mar 07 2023 15:00:16 GMT+0100 (Mitteleuropäische Normalzeit),1678197616220,INSERT_A_NUMBER,
5,True,green or low pitch,red or high pitch,forced_choice_sound,10,7,correct,1567,Press the according button,images/green.png,vision,9,7,green or low pitch,,,Tue Mar 07 2023 15:00:16 GMT+0100 (Mitteleuropäische Normalzeit),1678197616220,INSERT_A_NUMBER,
5,True,green or low pitch,red or high pitch,forced_choice_sound,11,7,correct,1280,Press the according button,images/sound.jpg,sound,9,7,green or low pitch,,1.0,Tue Mar 07 2023 15:00:16 GMT+0100 (Mitteleuropäische Normalzeit),1678197616220,INSERT_A_NUMBER,
5,True,green or low pitch,red or high pitch,forced_choice_sound,12,9,correct,1092,Press the according button,images/red.png,vision,9,7,red or high pitch,,,Tue Mar 07 2023 15:00:16 GMT+0100 (Mitteleuropäische Normalzeit),1678197616220,INSERT_A_NUMBER,
5,True,green or low pitch,red or high pitch,forced_choice_sound,13,7,correct,903,Press the according button,images/green.png,vision,9,7,green or low pitch,,,Tue Mar 07 2023 15:00:16 GMT+0100 (Mitteleuropäische Normalzeit),1678197616220,INSERT_A_NUMBER,
5,True,green or low pitch,red or high pitch,forced_choice_sound,14,7,correct,1844,Press the according button,images/sound.jpg,sound,9,7,green or low pitch,,1.0,Tue Mar 07 2023 15:00:16 GMT+0100 (Mitteleuropäische Normalzeit),1678197616220,INSERT_A_NUMBER,
5,True,green or low pitch,red or high pitch,forced_choice_sound,15,9,correct,999,Press the according button,images/sound.jpg,sound,9,7,red or high pitch,,0.0,Tue Mar 07 2023 15:00:16 GMT+0100 (Mitteleuropäische Normalzeit),1678197616220,INSERT_A_NUMBER,
5,True,green or low pitch,red or high pitch,forced_choice_sound,16,9,correct,898,Press the according button,images/sound.jpg,sound,9,7,red or high pitch,,0.0,Tue Mar 07 2023 15:00:16 GMT+0100 (Mitteleuropäische Normalzeit),1678197616220,INSERT_A_NUMBER,
5,True,green or low pitch,red or high pitch,forced_choice_sound,17,7,correct,951,Press the according button,images/sound.jpg,sound,9,7,green or low pitch,,1.0,Tue Mar 07 2023 15:00:16 GMT+0100 (Mitteleuropäische Normalzeit),1678197616220,INSERT_A_NUMBER,
5,True,green or low pitch,red or high pitch,forced_choice_sound,18,9,correct,854,Press the according button,images/red.png,vision,9,7,red or high pitch,,,Tue Mar 07 2023 15:00:16 GMT+0100 (Mitteleuropäische Normalzeit),1678197616220,INSERT_A_NUMBER,
5,True,green or low pitch,red or high pitch,forced_choice_sound,19,7,correct,1795,Press the according button,images/green.png,vision,9,7,green or low pitch,,,Tue Mar 07 2023 15:00:16 GMT+0100 (Mitteleuropäische Normalzeit),1678197616220,INSERT_A_NUMBER,
5,True,green or low pitch,red or high pitch,forced_choice_sound,20,7,correct,1751,Press the according button,images/sound.jpg,sound,9,7,green or low pitch,,1.0,Tue Mar 07 2023 15:00:16 GMT+0100 (Mitteleuropäische Normalzeit),1678197616220,INSERT_A_NUMBER,
5,False,green or low pitch,red or high pitch,pauseScreen,1,9,correct,4908,Press the according button,images/red.png,vision,9,7,red or high pitch,,,Tue Mar 07 2023 15:07:26 GMT+0100 (Mitteleuropäische Normalzeit),1678198046221,INSERT_A_NUMBER,
5,False,green or low pitch,red or high pitch,forced_choice_sound,1,9,correct,900,Press the according button,images/red.png,vision,9,7,red or high pitch,,,Tue Mar 07 2023 15:07:26 GMT+0100 (Mitteleuropäische Normalzeit),1678198046221,INSERT_A_NUMBER,
5,False,green or low pitch,red or high pitch,forced_choice_sound,2,7,correct,2031,Press the according button,images/sound.jpg,sound,9,7,green or low pitch,,1.0,Tue Mar 07 2023 15:07:26 GMT+0100 (Mitteleuropäische Normalzeit),1678198046221,INSERT_A_NUMBER,
5,False,green or low pitch,red or high pitch,forced_choice_sound,3,7,correct,1087,Press the according button,images/sound.jpg,sound,9,7,green or low pitch,,1.0,Tue Mar 07 2023 15:07:26 GMT+0100 (Mitteleuropäische Normalzeit),1678198046221,INSERT_A_NUMBER,
5,False,green or low pitch,red or high pitch,forced_choice_sound,4,7,correct,855,Press the according button,images/sound.jpg,sound,9,7,green or low pitch,,1.0,Tue Mar 07 2023 15:07:26 GMT+0100 (Mitteleuropäische Normalzeit),1678198046221,INSERT_A_NUMBER,
5,False,green or low pitch,red or high pitch,forced_choice_sound,5,7,correct,995,Press the according button,images/sound.jpg,sound,9,7,green or low pitch,,1.0,Tue Mar 07 2023 15:07:26 GMT+0100 (Mitteleuropäische Normalzeit),1678198046221,INSERT_A_NUMBER,
5,False,green or low pitch,red or high pitch,forced_choice_sound,6,9,correct,1044,Press the according button,images/sound.jpg,sound,9,7,red or high pitch,,0.0,Tue Mar 07 2023 15:07:26 GMT+0100 (Mitteleuropäische Normalzeit),1678198046221,INSERT_A_NUMBER,
5,False,green or low pitch,red or high pitch,forced_choice_sound,7,9,correct,714,Press the according button,images/red.png,vision,9,7,red or high pitch,,,Tue Mar 07 2023 15:07:26 GMT+0100 (Mitteleuropäische Normalzeit),1678198046221,INSERT_A_NUMBER,
5,False,green or low pitch,red or high pitch,forced_choice_sound,8,9,correct,1983,Press the according button,images/red.png,vision,9,7,red or high pitch,,,Tue Mar 07 2023 15:07:26 GMT+0100 (Mitteleuropäische Normalzeit),1678198046221,INSERT_A_NUMBER,
5,False,green or low pitch,red or high pitch,forced_choice_sound,9,7,correct,898,Press the according button,images/green.png,vision,9,7,green or low pitch,,,Tue Mar 07 2023 15:07:26 GMT+0100 (Mitteleuropäische Normalzeit),1678198046221,INSERT_A_NUMBER,
5,False,green or low pitch,red or high pitch,forced_choice_sound,10,7,correct,1284,Press the according button,images/sound.jpg,sound,9,7,green or low pitch,,1.0,Tue Mar 07 2023 15:07:26 GMT+0100 (Mitteleuropäische Normalzeit),1678198046221,INSERT_A_NUMBER,
5,False,green or low pitch,red or high pitch,forced_choice_sound,11,9,correct,1044,Press the according button,images/sound.jpg,sound,9,7,red or high pitch,,0.0,Tue Mar 07 2023 15:07:26 GMT+0100 (Mitteleuropäische Normalzeit),1678198046221,INSERT_A_NUMBER,
5,False,green or low pitch,red or high pitch,forced_choice_sound,12,7,correct,898,Press the according button,images/green.png,vision,9,7,green or low pitch,,,Tue Mar 07 2023 15:07:26 GMT+0100 (Mitteleuropäische Normalzeit),1678198046221,INSERT_A_NUMBER,
5,False,green or low pitch,red or high pitch,forced_choice_sound,13,9,correct,714,Press the according button,images/red.png,vision,9,7,red or high pitch,,,Tue Mar 07 2023 15:07:26 GMT+0100 (Mitteleuropäische Normalzeit),1678198046221,INSERT_A_NUMBER,
5,False,green or low pitch,red or high pitch,forced_choice_sound,14,9,correct,1371,Press the according button,images/sound.jpg,sound,9,7,red or high pitch,,0.0,Tue Mar 07 2023 15:07:26 GMT+0100 (Mitteleuropäische Normalzeit),1678198046221,INSERT_A_NUMBER,
5,False,green or low pitch,red or high pitch,forced_choice_sound,15,9,correct,947,Press the according button,images/sound.jpg,sound,9,7,red or high pitch,,0.0,Tue Mar 07 2023 15:07:26 GMT+0100 (Mitteleuropäische Normalzeit),1678198046221,INSERT_A_NUMBER,
5,False,green or low pitch,red or high pitch,forced_choice_sound,16,7,correct,1796,Press the according button,images/green.png,vision,9,7,green or low pitch,,,Tue Mar 07 2023 15:07:26 GMT+0100 (Mitteleuropäische Normalzeit),1678198046221,INSERT_A_NUMBER,
5,False,green or low pitch,red or high pitch,forced_choice_sound,17,9,correct,1042,Press the according button,images/sound.jpg,sound,9,7,red or high pitch,,0.0,Tue Mar 07 2023 15:07:26 GMT+0100 (Mitteleuropäische Normalzeit),1678198046221,INSERT_A_NUMBER,
5,False,green or low pitch,red or high pitch,forced_choice_sound,18,7,incorrect,1843,Press the according button,images/red.png,vision,9,7,red or high pitch,,,Tue Mar 07 2023 15:07:26 GMT+0100 (Mitteleuropäische Normalzeit),1678198046221,INSERT_A_NUMBER,
5,False,green or low pitch,red or high pitch,forced_choice_sound,19,7,correct,1091,Press the according button,images/green.png,vision,9,7,green or low pitch,,,Tue Mar 07 2023 15:07:26 GMT+0100 (Mitteleuropäische Normalzeit),1678198046221,INSERT_A_NUMBER,
5,False,green or low pitch,red or high pitch,forced_choice_sound,20,7,correct,997,Press the according button,images/green.png,vision,9,7,green or low pitch,,,Tue Mar 07 2023 15:07:26 GMT+0100 (Mitteleuropäische Normalzeit),1678198046221,INSERT_A_NUMBER,
6,True,green or low pitch,red or high pitch,pauseScreen,1,9,correct,2135,Press the according button,images/red.png,vision,9,7,red or high pitch,,,Tue Mar 07 2023 15:38:25 GMT+0100 (Mitteleuropäische Normalzeit),1678199905309,INSERT_A_NUMBER,
6,True,green or low pitch,red or high pitch,forced_choice_sound,1,9,correct,761,Press the according button,images/red.png,vision,9,7,red or high pitch,,,Tue Mar 07 2023 15:38:25 GMT+0100 (Mitteleuropäische Normalzeit),1678199905309,INSERT_A_NUMBER,
6,True,green or low pitch,red or high pitch,forced_choice_sound,2,7,correct,954,Press the according button,images/sound.jpg,sound,9,7,green or low pitch,,1.0,Tue Mar 07 2023 15:38:25 GMT+0100 (Mitteleuropäische Normalzeit),1678199905309,INSERT_A_NUMBER,
6,True,green or low pitch,red or high pitch,forced_choice_sound,3,9,incorrect,526,Press the according button,images/green.png,vision,9,7,green or low pitch,,,Tue Mar 07 2023 15:38:25 GMT+0100 (Mitteleuropäische Normalzeit),1678199905309,INSERT_A_NUMBER,
6,True,green or low pitch,red or high pitch,forced_choice_sound,4,9,correct,1845,Press the according button,images/red.png,vision,9,7,red or high pitch,,,Tue Mar 07 2023 15:38:25 GMT+0100 (Mitteleuropäische Normalzeit),1678199905309,INSERT_A_NUMBER,
6,True,green or low pitch,red or high pitch,forced_choice_sound,5,9,correct,1000,Press the according button,images/sound.jpg,sound,9,7,red or high pitch,,0.0,Tue Mar 07 2023 15:38:25 GMT+0100 (Mitteleuropäische Normalzeit),1678199905309,INSERT_A_NUMBER,
6,True,green or low pitch,red or high pitch,forced_choice_sound,6,7,correct,855,Press the according button,images/sound.jpg,sound,9,7,green or low pitch,,1.0,Tue Mar 07 2023 15:38:25 GMT+0100 (Mitteleuropäische Normalzeit),1678199905309,INSERT_A_NUMBER,
6,True,green or low pitch,red or high pitch,forced_choice_sound,7,9,correct,623,Press the according button,images/red.png,vision,9,7,red or high pitch,,,Tue Mar 07 2023 15:38:25 GMT+0100 (Mitteleuropäische Normalzeit),1678199905309,INSERT_A_NUMBER,
6,True,green or low pitch,red or high pitch,forced_choice_sound,8,7,correct,531,Press the according button,images/green.png,vision,9,7,green or low pitch,,,Tue Mar 07 2023 15:38:25 GMT+0100 (Mitteleuropäische Normalzeit),1678199905309,INSERT_A_NUMBER,
6,True,green or low pitch,red or high pitch,forced_choice_sound,9,9,correct,954,Press the according button,images/sound.jpg,sound,9,7,red or high pitch,,0.0,Tue Mar 07 2023 15:38:25 GMT+0100 (Mitteleuropäische Normalzeit),1678199905309,INSERT_A_NUMBER,
6,True,green or low pitch,red or high pitch,forced_choice_sound,10,9,correct,900,Press the according button,images/sound.jpg,sound,9,7,red or high pitch,,0.0,Tue Mar 07 2023 15:38:25 GMT+0100 (Mitteleuropäische Normalzeit),1678199905309,INSERT_A_NUMBER,
6,True,green or low pitch,red or high pitch,forced_choice_sound,11,7,correct,811,Press the according button,images/sound.jpg,sound,9,7,green or low pitch,,1.0,Tue Mar 07 2023 15:38:25 GMT+0100 (Mitteleuropäische Normalzeit),1678199905309,INSERT_A_NUMBER,
6,True,green or low pitch,red or high pitch,forced_choice_sound,12,7,correct,714,Press the according button,images/green.png,vision,9,7,green or low pitch,,,Tue Mar 07 2023 15:38:25 GMT+0100 (Mitteleuropäische Normalzeit),1678199905309,INSERT_A_NUMBER,
6,True,green or low pitch,red or high pitch,forced_choice_sound,13,9,correct,908,Press the according button,images/sound.jpg,sound,9,7,red or high pitch,,0.0,Tue Mar 07 2023 15:38:25 GMT+0100 (Mitteleuropäische Normalzeit),1678199905309,INSERT_A_NUMBER,
6,True,green or low pitch,red or high pitch,forced_choice_sound,14,7,correct,525,Press the according button,images/green.png,vision,9,7,green or low pitch,,,Tue Mar 07 2023 15:38:25 GMT+0100 (Mitteleuropäische Normalzeit),1678199905309,INSERT_A_NUMBER,
6,True,green or low pitch,red or high pitch,forced_choice_sound,15,9,correct,951,Press the according button,images/sound.jpg,sound,9,7,red or high pitch,,0.0,Tue Mar 07 2023 15:38:25 GMT+0100 (Mitteleuropäische Normalzeit),1678199905309,INSERT_A_NUMBER,
6,True,green or low pitch,red or high pitch,forced_choice_sound,16,7,correct,1139,Press the according button,images/sound.jpg,sound,9,7,green or low pitch,,1.0,Tue Mar 07 2023 15:38:25 GMT+0100 (Mitteleuropäische Normalzeit),1678199905309,INSERT_A_NUMBER,
6,True,green or low pitch,red or high pitch,forced_choice_sound,17,9,correct,628,Press the according button,images/red.png,vision,9,7,red or high pitch,,,Tue Mar 07 2023 15:38:25 GMT+0100 (Mitteleuropäische Normalzeit),1678199905309,INSERT_A_NUMBER,
6,True,green or low pitch,red or high pitch,forced_choice_sound,18,9,correct,479,Press the according button,images/red.png,vision,9,7,red or high pitch,,,Tue Mar 07 2023 15:38:25 GMT+0100 (Mitteleuropäische Normalzeit),1678199905309,INSERT_A_NUMBER,
6,True,green or low pitch,red or high pitch,forced_choice_sound,19,7,correct,768,Press the according button,images/sound.jpg,sound,9,7,green or low pitch,,1.0,Tue Mar 07 2023 15:38:25 GMT+0100 (Mitteleuropäische Normalzeit),1678199905309,INSERT_A_NUMBER,
6,True,green or low pitch,red or high pitch,forced_choice_sound,20,7,correct,625,Press the according button,images/green.png,vision,9,7,green or low pitch,,,Tue Mar 07 2023 15:38:25 GMT+0100 (Mitteleuropäische Normalzeit),1678199905309,INSERT_A_NUMBER,
6,False,green or low pitch,red or high pitch,pauseScreen,1,9,correct,4680,Press the according button,images/red.png,vision,9,7,red or high pitch,,,Tue Mar 07 2023 15:16:19 GMT+0100 (Mitteleuropäische Normalzeit),1678198579534,INSERT_A_NUMBER,
6,False,green or low pitch,red or high pitch,forced_choice_sound,1,9,correct,996,Press the according button,images/red.png,vision,9,7,red or high pitch,,,Tue Mar 07 2023 15:16:19 GMT+0100 (Mitteleuropäische Normalzeit),1678198579534,INSERT_A_NUMBER,
6,False,green or low pitch,red or high pitch,forced_choice_sound,2,9,correct,904,Press the according button,images/red.png,vision,9,7,red or high pitch,,,Tue Mar 07 2023 15:16:19 GMT+0100 (Mitteleuropäische Normalzeit),1678198579534,INSERT_A_NUMBER,
6,False,green or low pitch,red or high pitch,forced_choice_sound,3,7,correct,716,Press the according button,images/green.png,vision,9,7,green or low pitch,,,Tue Mar 07 2023 15:16:19 GMT+0100 (Mitteleuropäische Normalzeit),1678198579534,INSERT_A_NUMBER,
6,False,green or low pitch,red or high pitch,forced_choice_sound,4,9,correct,622,Press the according button,images/red.png,vision,9,7,red or high pitch,,,Tue Mar 07 2023 15:16:19 GMT+0100 (Mitteleuropäische Normalzeit),1678198579534,INSERT_A_NUMBER,
6,False,green or low pitch,red or high pitch,forced_choice_sound,5,9,correct,10491,Press the according button,images/sound.jpg,sound,9,7,red or high pitch,,0.0,Tue Mar 07 2023 15:16:19 GMT+0100 (Mitteleuropäische Normalzeit),1678198579534,INSERT_A_NUMBER,
6,False,green or low pitch,red or high pitch,forced_choice_sound,6,9,correct,1235,Press the according button,images/sound.jpg,sound,9,7,red or high pitch,,0.0,Tue Mar 07 2023 15:16:19 GMT+0100 (Mitteleuropäische Normalzeit),1678198579534,INSERT_A_NUMBER,
6,False,green or low pitch,red or high pitch,forced_choice_sound,7,7,correct,903,Press the according button,images/sound.jpg,sound,9,7,green or low pitch,,1.0,Tue Mar 07 2023 15:16:19 GMT+0100 (Mitteleuropäische Normalzeit),1678198579534,INSERT_A_NUMBER,
6,False,green or low pitch,red or high pitch,forced_choice_sound,8,9,correct,858,Press the according button,images/sound.jpg,sound,9,7,red or high pitch,,0.0,Tue Mar 07 2023 15:16:19 GMT+0100 (Mitteleuropäische Normalzeit),1678198579534,INSERT_A_NUMBER,
6,False,green or low pitch,red or high pitch,forced_choice_sound,9,7,correct,860,Press the according button,images/green.png,vision,9,7,green or low pitch,,,Tue Mar 07 2023 15:16:19 GMT+0100 (Mitteleuropäische Normalzeit),1678198579534,INSERT_A_NUMBER,
6,False,green or low pitch,red or high pitch,forced_choice_sound,10,7,correct,951,Press the according button,images/sound.jpg,sound,9,7,green or low pitch,,1.0,Tue Mar 07 2023 15:16:19 GMT+0100 (Mitteleuropäische Normalzeit),1678198579534,INSERT_A_NUMBER,
6,False,green or low pitch,red or high pitch,forced_choice_sound,11,7,correct,672,Press the according button,images/green.png,vision,9,7,green or low pitch,,,Tue Mar 07 2023 15:16:19 GMT+0100 (Mitteleuropäische Normalzeit),1678198579534,INSERT_A_NUMBER,
6,False,green or low pitch,red or high pitch,forced_choice_sound,12,9,incorrect,665,Press the according button,images/sound.jpg,sound,9,7,green or low pitch,,1.0,Tue Mar 07 2023 15:16:19 GMT+0100 (Mitteleuropäische Normalzeit),1678198579534,INSERT_A_NUMBER,
6,False,green or low pitch,red or high pitch,pauseScreen,2,7,correct,1758,Press the according button,images/green.png,vision,9,7,green or low pitch,,,Tue Mar 07 2023 15:16:19 GMT+0100 (Mitteleuropäische Normalzeit),1678198579534,INSERT_A_NUMBER,
6,False,green or low pitch,red or high pitch,forced_choice_sound,1,9,correct,574,Press the according button,images/red.png,vision,9,7,red or high pitch,,,Tue Mar 07 2023 15:16:19 GMT+0100 (Mitteleuropäische Normalzeit),1678198579534,INSERT_A_NUMBER,
6,False,green or low pitch,red or high pitch,forced_choice_sound,2,9,correct,951,Press the according button,images/sound.jpg,sound,9,7,red or high pitch,,0.0,Tue Mar 07 2023 15:16:19 GMT+0100 (Mitteleuropäische Normalzeit),1678198579534,INSERT_A_NUMBER,
6,False,green or low pitch,red or high pitch,forced_choice_sound,3,7,correct,765,Press the according button,images/sound.jpg,sound,9,7,green or low pitch,,1.0,Tue Mar 07 2023 15:16:19 GMT+0100 (Mitteleuropäische Normalzeit),1678198579534,INSERT_A_NUMBER,
6,False,green or low pitch,red or high pitch,forced_choice_sound,4,9,correct,623,Press the according button,images/red.png,vision,9,7,red or high pitch,,,Tue Mar 07 2023 15:16:19 GMT+0100 (Mitteleuropäische Normalzeit),1678198579534,INSERT_A_NUMBER,
6,False,green or low pitch,red or high pitch,forced_choice_sound,5,7,correct,527,Press the according button,images/green.png,vision,9,7,green or low pitch,,,Tue Mar 07 2023 15:16:19 GMT+0100 (Mitteleuropäische Normalzeit),1678198579534,INSERT_A_NUMBER,
6,False,green or low pitch,red or high pitch,forced_choice_sound,6,7,correct,2600,Press the according button,images/green.png,vision,9,7,green or low pitch,,,Tue Mar 07 2023 15:16:19 GMT+0100 (Mitteleuropäische Normalzeit),1678198579534,INSERT_A_NUMBER,
6,False,green or low pitch,red or high pitch,forced_choice_sound,7,7,correct,766,Press the according button,images/sound.jpg,sound,9,7,green or low pitch,,1.0,Tue Mar 07 2023 15:16:19 GMT+0100 (Mitteleuropäische Normalzeit),1678198579534,INSERT_A_NUMBER,
6,False,green or low pitch,red or high pitch,forced_choice_sound,8,7,correct,765,Press the according button,images/sound.jpg,sound,9,7,green or low pitch,,1.0,Tue Mar 07 2023 15:16:19 GMT+0100 (Mitteleuropäische Normalzeit),1678198579534,INSERT_A_NUMBER,
6,False,green or low pitch,red or high pitch,forced_choice_sound,9,7,correct,621,Press the according button,images/green.png,vision,9,7,green or low pitch,,,Tue Mar 07 2023 15:16:19 GMT+0100 (Mitteleuropäische Normalzeit),1678198579534,INSERT_A_NUMBER,
6,False,green or low pitch,red or high pitch,forced_choice_sound,10,9,correct,718,Press the according button,images/sound.jpg,sound,9,7,red or high pitch,,0.0,Tue Mar 07 2023 15:16:19 GMT+0100 (Mitteleuropäische Normalzeit),1678198579534,INSERT_A_NUMBER,
6,False,green or low pitch,red or high pitch,forced_choice_sound,11,9,correct,432,Press the according button,images/red.png,vision,9,7,red or high pitch,,,Tue Mar 07 2023 15:16:19 GMT+0100 (Mitteleuropäische Normalzeit),1678198579534,INSERT_A_NUMBER,
6,False,green or low pitch,red or high pitch,forced_choice_sound,12,7,correct,859,Press the according button,images/sound.jpg,sound,9,7,green or low pitch,,1.0,Tue Mar 07 2023 15:16:19 GMT+0100 (Mitteleuropäische Normalzeit),1678198579534,INSERT_A_NUMBER,
6,False,green or low pitch,red or high pitch,forced_choice_sound,13,9,correct,527,Press the according button,images/red.png,vision,9,7,red or high pitch,,,Tue Mar 07 2023 15:16:19 GMT+0100 (Mitteleuropäische Normalzeit),1678198579534,INSERT_A_NUMBER,
6,False,green or low pitch,red or high pitch,forced_choice_sound,14,7,incorrect,946,Press the according button,images/sound.jpg,sound,9,7,red or high pitch,,0.0,Tue Mar 07 2023 15:16:19 GMT+0100 (Mitteleuropäische Normalzeit),1678198579534,INSERT_A_NUMBER,
6,False,green or low pitch,red or high pitch,forced_choice_sound,15,7,correct,861,Press the according button,images/green.png,vision,9,7,green or low pitch,,,Tue Mar 07 2023 15:16:19 GMT+0100 (Mitteleuropäische Normalzeit),1678198579534,INSERT_A_NUMBER,
6,False,green or low pitch,red or high pitch,forced_choice_sound,16,7,correct,806,Press the according button,images/sound.jpg,sound,9,7,green or low pitch,,1.0,Tue Mar 07 2023 15:16:19 GMT+0100 (Mitteleuropäische Normalzeit),1678198579534,INSERT_A_NUMBER,
